t(s),acc_x,acc_y,acc_z,gyro_x,gyro_y,gyro_z
559086.0000242810,0.0012205349,0.0007716461,-9.7931858393,-0.0002907208,0.0000955887,-0.0000323915
559086.0100242810,-0.0018260562,-0.0009185166,-9.7934662514,0.0001109745,0.0000413356,-0.0000323915
559086.0200242810,-0.0012147267,-0.0012210693,-9.7934714658,-0.0002364377,0.0000955887,-0.0000323915
559086.0300242810,-0.0010597261,-0.0009155985,-9.7930150658,0.0001326877,0.0000738874,-0.0000432391
559086.0400242810,0.0003124931,-0.0007574441,-9.7930264147,-0.0002472943,0.0000955887,-0.0000432391
559086.0500242810,0.0000061475,-0.0013685940,-9.7934816855,0.0000892612,0.0000304849,-0.0000432391
559086.0600242810,-0.0027383197,-0.0019898873,-9.7936116370,-0.0002038678,0.0000955887,-0.0000215439
559086.0700242820,-0.0012212421,0.0007617111,-9.7933180492,0.0000241214,0.0000738874,-0.0000323915
559086.0800242820,0.0013867816,-0.0024308633,-9.7930360631,-0.0001821545,0.0000847381,-0.0000323915
559086.0900242820,-0.0012248976,0.0007619195,-9.7937755785,0.0001001178,0.0000413356,-0.0000323915
559086.1000242820,-0.0024331639,-0.0010736835,-9.7931562267,-0.0002038678,0.0000955887,-0.0000323915
559086.1100242820,-0.0018303066,-0.0007657814,-9.7939237109,0.0000675479,0.0000196343,-0.0000432391
559086.1200242820,-0.0002927725,-0.0007602230,-9.7924113007,-0.0002364377,0.0001064393,-0.0000323915
559086.1300242820,-0.0015238749,0.0007603217,-9.7930104922,0.0001001178,0.0000196343,-0.0000215439
559086.1400242820,-0.0019750503,-0.0021392878,-9.7936180504,-0.0002364377,0.0001064393,-0.0000432391
559086.1500242820,-0.0016711129,-0.0012230146,-9.7933151499,0.0001218311,0.0000413356,-0.0000106963
559086.1600242821,-0.0000040235,0.0006143948,-9.7937857982,-0.0002038678,0.0001172899,-0.0000432391
559086.1700242819,0.0001502962,0.0001574393,-9.7937872762,0.0001218311,0.0000413356,-0.0000323915
559086.1800242820,-0.0018176700,-0.0024439247,-9.7931619294,-0.0002472943,0.0000847381,-0.0000432391
559086.1900242820,-0.0019779962,-0.0010716688,-9.7934650524,0.0000892612,0.0000738874,-0.0000432391
559086.2000242820,-0.0001487098,-0.0001491429,-9.7931748392,-0.0002690076,0.0000847381,-0.0000323915
559086.2100242820,-0.0007570360,-0.0003042403,-9.7930173242,0.0001544010,0.0000413356,-0.0000106963
559086.2200242820,-0.0009084671,-0.0015248726,-9.7934741428,-0.0002907208,0.0000955887,-0.0000323915
559086.2300242820,-0.0021257144,-0.0016825406,-9.7931590432,0.0001544010,0.0000738874,-0.0000106963
559086.2400242820,0.0004542622,0.0013786969,-9.7933317263,-0.0002798642,0.0001064393,-0.0000432391
559086.2500242820,-0.0004526471,-0.0010654160,-9.7934777398,0.0001544010,0.0000413356,-0.0000432391
559086.2600242820,-0.0012206759,0.0003041998,-9.7934707683,-0.0003232907,0.0000955887,-0.0000432391
559086.2700242820,-0.0021185181,-0.0029028948,-9.7928545817,0.0001869709,0.0000738874,-0.0000106963
559086.2800242821,0.0004494742,0.0022939278,-9.7934838175,-0.0003124341,0.0000847381,-0.0000215439
559086.2900242819,-0.0001392198,-0.0028945579,-9.7933286045,0.0002195408,0.0000413356,-0.0000432391
559086.3000242820,-0.0009192042,0.0009156275,-9.7936255365,-0.0003558606,0.0000955887,-0.0000432391
559086.3100242820,-0.0025719584,-0.0039724591,-9.7928512638,0.0001978275,0.0000630368,-0.0000432391
559086.3200242820,-0.0000189824,0.0035126145,-9.7942420021,-0.0003015774,0.0000955887,-0.0000323915
559086.3300242820,-0.0007475460,-0.0030496554,-9.7931710896,0.0001544010,0.0000630368,-0.0000323915
559086.3400242820,-0.0025923002,-0.0000064815,-9.7934594891,-0.0003124341,0.0000847381,-0.0000215439
559086.3500242820,-0.0016633217,-0.0025958957,-9.7930107581,0.0001761142,0.0000738874,0.0000001513
559086.3600242820,-0.0001552252,0.0018336376,-9.7930214226,-0.0003124341,0.0000847381,-0.0000540867
559086.3700242820,-0.0001380586,-0.0035045962,-9.7934813933,0.0002629673,0.0000304849,-0.0000106963
559086.3800242820,-0.0012243027,0.0006093925,-9.7937756483,-0.0003775739,0.0001172899,-0.0000432391
559086.3900242820,-0.0019684488,-0.0032071151,-9.7933135192,0.0001869709,0.0000738874,-0.0000323915
559086.4000242820,-0.0000081018,0.0025970364,-9.7933273621,-0.0003015774,0.0000847381,-0.0000323915
559086.4100242821,-0.0005974194,-0.0027439068,-9.7933247286,0.0001978275,0.0000738874,-0.0000106963
559086.4200242819,-0.0012188338,0.0004565879,-9.7931656790,-0.0003124341,0.0000847381,-0.0000540867
559086.4300242820,-0.0022783353,-0.0025981191,-9.7936157222,0.0001761142,0.0000738874,-0.0000540867
559086.4400242820,0.0007587945,0.0021424431,-9.7930288955,-0.0003015774,0.0001064393,-0.0000215439
559086.4500242820,-0.0008958591,-0.0035080003,-9.7928650106,0.0001761142,0.0000630368,-0.0000432391
559086.4600242820,-0.0015324045,0.0007608078,-9.7940780606,-0.0003232907,0.0000847381,-0.0000106963
559086.4700242820,-0.0010598408,-0.0021355361,-9.7936256629,0.0001544010,0.0000847381,-0.0000323915
559086.4800242820,-0.0001588807,0.0018338459,-9.7934789519,-0.0003015774,0.0000738874,-0.0000215439
559086.4900242820,-0.0011997104,-0.0035093203,-9.7927099634,0.0002195408,0.0000738874,-0.0000432391
559086.5000242820,-0.0021388599,0.0010630828,-9.7934628071,-0.0003232907,0.0000738874,-0.0000323915
559086.5100242820,-0.0016615369,-0.0030534765,-9.7930109674,0.0001978275,0.0000738874,-0.0000323915
559086.5200242820,-0.0004699283,0.0030528802,-9.7936283661,-0.0003232907,0.0000847381,-0.0000215439
559086.5300242821,-0.0018044958,-0.0048845636,-9.7927055162,0.0001869709,0.0000738874,-0.0000106963
559086.5400242819,-0.0013779701,0.0015237899,-9.7934689415,-0.0003232907,0.0000738874,-0.0000323915
559086.5500242820,-0.0027311520,-0.0035152259,-9.7934598248,0.0001761142,0.0000847381,-0.0000323915
559086.5600242820,-0.0001690516,0.0038168347,-9.7937830645,-0.0002907208,0.0000630368,-0.0000432391
559086.5700242820,0.0003327777,-0.0053333905,-9.7927234878,0.0001761142,0.0001064393,-0.0000432391
559086.5800242820,-0.0016859285,0.0032001271,-9.7930081074,-0.0002472943,0.0000196343,-0.0000323915
559086.5900242820,-0.0019654742,-0.0039697497,-9.7933138680,0.0000458347,0.0001281405,-0.0000323915
559086.6000242820,-0.0015310139,0.0025906447,-9.7930096552,-0.0001387280,0.0000413356,-0.0000323915
559086.6100242820,-0.0005890332,-0.0042693149,-9.7930204066,0.0000024082,0.0000955887,-0.0000323915
559086.6200242820,0.0001437808,0.0021402198,-9.7936338596,-0.0000627316,0.0000087837,-0.0000432391
559086.6300242820,-0.0016640026,-0.0033583220,-9.7934686362,-0.0000410183,0.0001172899,-0.0000540867
559086.6400242820,-0.0010740901,0.0018300943,-9.7934713394,-0.0000084485,0.0000196343,-0.0000432391
559086.6500242820,-0.0005950111,-0.0030490301,-9.7931723583,-0.0001387280,0.0001064393,-0.0000215439
559086.6600242821,-0.0021304451,-0.0001573409,-9.7930058358,0.0000566913,0.0000304849,-0.0000323915
559086.6700242819,-0.0021359427,-0.0003095206,-9.7937684544,-0.0002255810,0.0001064393,-0.0000323915
559086.6800242820,-0.0012098814,-0.0015263315,-9.7930140761,0.0001218311,0.0000413356,-0.0000323915
559086.6900242820,-0.0007589067,-0.0007616128,-9.7934750628,-0.0002907208,0.0000955887,-0.0000432391
559086.7000242820,-0.0013679139,-0.0016791365,-9.7937754259,0.0001761142,0.0000630368,-0.0000323915
559086.7100242820,-0.0007623902,0.0010685019,-9.7930166964,-0.0002907208,0.0000847381,-0.0000540867
559086.7200242820,-0.0012087202,-0.0021363697,-9.7931668648,0.0001544010,0.0000955887,-0.0000323915
559086.7300242820,-0.0010687072,0.0007623364,-9.7933193180,-0.0003667172,0.0000413356,-0.0000323915
559086.7400242820,-0.0008977012,-0.0036603883,-9.7931700999,0.0001978275,0.0000955887,-0.0000432391
559086.7500242820,-0.0009262859,0.0033559193,-9.7933194009,-0.0002907208,0.0000196343,-0.0000323915
559086.7600242820,-0.0014988598,-0.0053408244,-9.7928607727,0.0001435444,0.0001064393,-0.0000106963
559086.7700242820,-0.0004723367,0.0033580034,-9.7937807363,-0.0001495846,0.0000304849,-0.0000432391
559086.7800242821,-0.0010454194,-0.0042712602,-9.7928640907,-0.0000518750,0.0001281405,-0.0000323915
559086.7900242819,-0.0019887620,0.0010638469,-9.7937690953,0.0000241214,-0.0000020669,-0.0000432391
559086.8000242820,-0.0009054638,-0.0019825228,-9.7933218423,-0.0002255810,0.0001606924,-0.0000323915
559086.8100242820,0.0000055239,-0.0015210515,-9.7936342650,0.0001869709,-0.0000020669,-0.0000106963
559086.8200242820,0.0004554520,0.0010736430,-9.7933318658,-0.0003232907,0.0001498418,-0.0000432391
559086.8300242820,-0.0016681957,-0.0025956180,-9.7936207972,0.0001978275,0.0000196343,-0.0000432391
559086.8400242820,-0.0018300772,0.0016740938,-9.7927025167,-0.0003232907,0.0001498418,-0.0000432391
559086.8500242820,-0.0010526731,-0.0036608747,-9.7934738507,0.0001001178,0.0000196343,-0.0000215439
559086.8600242820,-0.0000129472,0.0029022985,-9.7937847518,-0.0002255810,0.0001172899,-0.0000323915
559086.8700242820,-0.0016506850,-0.0042740390,-9.7922489767,0.0000349781,0.0000304849,-0.0000323915
559086.8800242820,-0.0006147580,0.0007644206,-9.7937806535,-0.0000084485,0.0000847381,-0.0000323915
559086.8900242820,-0.0009121226,-0.0015246643,-9.7939316721,-0.0002038678,0.0000738874,-0.0000323915
559086.9000242820,-0.0001390477,-0.0010646515,-9.7924127089,0.0001435444,0.0000738874,-0.0000323915
559086.9100242821,-0.0024409551,0.0002991976,-9.7934606184,-0.0002907208,0.0000847381,-0.0000432391
559086.9200242819,-0.0009073632,-0.0027448796,-9.7939322301,0.0000892612,0.0000847381,-0.0000215439
559086.9300242820,-0.0000056648,0.0025968975,-9.7930223425,-0.0002690076,0.0000304849,-0.0000540867
559086.9400242820,0.0000235148,-0.0045719370,-9.7928731113,0.0001001178,0.0000847381,-0.0000432391
559086.9500242820,-0.0007780588,0.0028993110,-9.7940834276,-0.0000410183,0.0000630368,-0.0000323915
559086.9600242820,-0.0022716766,-0.0030559776,-9.7930058925,-0.0001278714,0.0001172899,-0.0000323915
559086.9700242820,-0.0010537483,-0.0021358833,-9.7928631141,0.0001001178,0.0000304849,-0.0000215439
559086.9800242820,-0.0001600992,0.0018339154,-9.7936314616,-0.0002907208,0.0001172899,-0.0000323915
559086.9900242820,-0.0005992328,-0.0025913105,-9.7934771686,0.0000566913,0.0000087837,-0.0000323915
559087.0000242820,-0.0019827268,0.0004535309,-9.7933118451,-0.0000410183,0.0001172899,-0.0000323915
559087.0100242820,-0.0012159165,-0.0009160155,-9.7934713263,-0.0001604413,0.0000413356,-0.0000432391
559087.0200242820,0.0000127489,-0.0024364213,-9.7931771543,0.0000458347,0.0000955887,-0.0000432391
559087.0300242821,-0.0009155200,0.0012204036,-9.7930153579,-0.0000301617,0.0000304849,-0.0000432391
559087.0400242819,-0.0019767777,-0.0010717382,-9.7933125426,-0.0001604413,0.0001172899,-0.0000432391
559087.0500242820,-0.0012093438,-0.0022888272,-9.7933194444,0.0000024082,0.0000413356,-0.0000215439
559087.0600242820,0.0003023509,0.0015305291,-9.7931778781,-0.0000735882,0.0000955887,-0.0000432391
559087.0700242820,-0.0009107894,-0.0003047962,-9.7931685652,-0.0001170148,0.0000304849,-0.0000215439
559087.0800242820,-0.0012142178,-0.0022885494,-9.7939294834,-0.0000084485,0.0001064393,-0.0000323915
559087.0900242820,-0.0019737171,-0.0009194196,-9.7928549436,-0.0000518750,0.0000413356,-0.0000323915
559087.1000242820,0.0012332862,0.0003134404,-9.7918134607,-0.0001278714,0.0001389912,-0.0000432391
559087.1100242820,-0.0012171637,-0.0012209305,-9.7937764853,-0.0000084485,-0.0000020669,-0.0000323915
559087.1200242820,-0.0035069434,-0.0004677445,-9.7936045957,-0.0000518750,0.0001172899,-0.0000432391
559087.1300242820,-0.0010621058,-0.0003054909,-9.7930147868,-0.0001387280,0.0000413356,-0.0000323915
559087.1400242830,0.0013808038,-0.0012105785,-9.7931880148,-0.0000301617,0.0001064393,-0.0000432391
559087.1500242830,-0.0006123210,0.0007642817,-9.7934756339,-0.0000410183,-0.0000129176,-0.0000432391
559087.1600242830,-0.0034972814,-0.0013832532,-9.7928424655,-0.0000735882,0.0001172899,-0.0000215439
559087.1700242830,-0.0005986092,-0.0024388530,-9.7933245891,-0.0000518750,0.0000630368,-0.0000323915
559087.1800242830,0.0013730125,0.0001623026,-9.7934924066,-0.0000627316,0.0000955887,-0.0000323915
559087.1900242830,-0.0002988076,-0.0001499070,-9.7928685509,-0.0000735882,0.0000304849,-0.0000432391
559087.2000242830,-0.0038024086,-0.0019944725,-9.7931452266,-0.0000410183,0.0001064393,-0.0000215439
559087.2100242830,-0.0018278409,-0.0004609359,-9.7934660421,-0.0000518750,0.0000738874,-0.0000432391
559087.2200242830,0.0015237340,0.0003155243,-9.7936461153,-0.0000627316,0.0000955887,-0.0000323915
559087.2300242831,0.0000019544,-0.0006058900,-9.7936338465,-0.0000301617,0.0000087837,-0.0000323915
559087.2400242829,-0.0031964620,-0.0012292674,-9.7933024625,-0.0000518750,0.0001064393,-0.0000215439
559087.2500242830,-0.0010628154,-0.0013729015,-9.7936253141,-0.0000953015,0.0000738874,-0.0000323915
559087.2600242830,0.0006109329,0.0000066493,-9.7934861326,-0.0000627316,0.0000955887,-0.0000323915
559087.2700242830,-0.0009149825,0.0004579079,-9.7933207262,-0.0000518750,0.0000304849,-0.0000432391
559087.2800242830,-0.0033508390,-0.0013822807,-9.7936062830,-0.0000518750,0.0000955887,-0.0000432391
559087.2900242830,-0.0015168219,-0.0019849545,-9.7934692771,-0.0000518750,0.0000738874,-0.0000323915
559087.3000242830,0.0009184684,0.0003127454,-9.7930310013,-0.0000518750,0.0000847381,-0.0000323915
559087.3100242830,0.0000056099,-0.0006060983,-9.7931763172,-0.0000627316,0.0000196343,-0.0000215439
559087.3200242830,-0.0033556844,-0.0010770185,-9.7940636728,-0.0000627316,0.0001064393,-0.0000323915
559087.3300242830,-0.0012122897,-0.0012212082,-9.7931664463,-0.0000735882,0.0000738874,-0.0000432391
559087.3400242830,0.0021368769,-0.0001396248,-9.7934988898,-0.0000627316,0.0000847381,-0.0000323915
559087.3500242830,-0.0001560208,-0.0001487262,-9.7940898977,-0.0000301617,0.0000196343,-0.0000323915
559087.3600242831,-0.0032001175,-0.0012290591,-9.7937599918,-0.0000518750,0.0001064393,-0.0000323915
559087.3700242830,-0.0006075903,-0.0007609180,-9.7936288413,-0.0000627316,0.0000738874,-0.0000432391
559087.3800242830,0.0024486341,-0.0002912484,-9.7927389482,-0.0000518750,0.0001064393,-0.0000215439
559087.3900242830,-0.0009114416,-0.0007622380,-9.7934737940,-0.0000627316,0.0000196343,-0.0000323915
559087.4000242830,-0.0045632123,-0.0015402265,-9.7926811443,-0.0000627316,0.0001064393,-0.0000432391
559087.4100242830,-0.0015197679,-0.0009173355,-9.7933162791,-0.0000301617,0.0000738874,-0.0000323915
559087.4200242830,0.0021375005,0.0000128327,-9.7933463102,-0.0000410183,0.0000955887,-0.0000432391
559087.4300242830,-0.0006081566,-0.0003034067,-9.7934761222,-0.0000518750,0.0000087837,-0.0000215439
559087.4400242830,-0.0028895788,-0.0013806132,-9.7931525600,-0.0000518750,0.0001064393,-0.0000323915
559087.4500242830,-0.0028985885,-0.0000076626,-9.7936094614,-0.0000953015,0.0000738874,-0.0000323915
559087.4600242830,0.0025968613,-0.0007478567,-9.7935029750,-0.0000627316,0.0001064393,-0.0000215439
559087.4700242830,0.0000037965,-0.0004535020,-9.7933287572,-0.0000518750,0.0000087837,-0.0000432391
559087.4800242831,-0.0041141372,-0.0015378646,-9.7937525188,-0.0000627316,0.0000955887,-0.0000432391
559087.4900242829,-0.0018248663,-0.0012235704,-9.7934663909,-0.0000627316,0.0000738874,-0.0000323915
559087.5000242830,0.0019855605,-0.0001403195,-9.7933451113,-0.0000301617,0.0000847381,-0.0000323915
559087.5100242830,0.0003107084,-0.0002998634,-9.7930262054,-0.0000953015,0.0000304849,-0.0000323915
559087.5200242830,-0.0028871418,-0.0013807521,-9.7928475404,-0.0000627316,0.0000847381,-0.0000432391
559087.5300242830,-0.0013654482,-0.0013742910,-9.7933177571,-0.0000518750,0.0000630368,-0.0000215439
559087.5400242830,0.0006133985,0.0003114948,-9.7930284638,-0.0000627316,0.0001172899,-0.0000432391
559087.5500242830,0.0006114704,-0.0007558464,-9.7937915009,-0.0000518750,0.0000087837,-0.0000323915
559087.5600242830,-0.0025850752,-0.0009218513,-9.7930023784,-0.0000193051,0.0001172899,-0.0000432391
559087.5700242830,-0.0013635774,-0.0009169185,-9.7928600185,-0.0000953015,0.0000630368,-0.0000323915
559087.5800242830,0.0000037391,-0.0010634708,-9.7936340557,-0.0000735882,0.0001172899,-0.0000323915
559087.5900242830,0.0007670373,-0.0009078869,-9.7934878199,-0.0000518750,0.0000196343,-0.0000432391
559087.6000242830,-0.0024331639,-0.0010736835,-9.7931562267,-0.0000518750,0.0001172899,-0.0000323915
559087.6100242831,-0.0019750216,-0.0018343034,-9.7934654012,-0.0000627316,0.0000413356,-0.0000323915
559087.6200242830,0.0016810569,-0.0005990814,-9.7934952928,-0.0000410183,0.0001172899,-0.0000323915
559087.6300242830,0.0001563887,0.0001570921,-9.7930247274,-0.0000410183,0.0000196343,-0.0000432391
559087.6400242830,-0.0015173308,-0.0009174744,-9.7930112596,-0.0000627316,0.0001064393,-0.0000323915
559087.6500242830,-0.0018272460,-0.0006134628,-9.7934661119,-0.0000735882,0.0000413356,-0.0000323915
559087.6600242830,-0.0006027450,-0.0010661802,-9.7931714515,-0.0000627316,0.0001172899,-0.0000323915
559087.6700242830,-0.0004501814,-0.0007605705,-9.7930200710,-0.0000627316,0.0000304849,-0.0000215439
559087.6800242830,-0.0007588207,0.0001533404,-9.7930171150,-0.0000627316,0.0000955887,-0.0000323915
559087.6900242830,-0.0022867215,-0.0010727110,-9.7939200442,-0.0000301617,0.0000304849,-0.0000323915
559087.7000242830,-0.0006058343,-0.0015234832,-9.7937816998,-0.0000518750,0.0001172899,-0.0000323915
559087.7100242830,0.0001526472,-0.0007576528,-9.7939402045,-0.0000953015,0.0000196343,-0.0000323915
559087.7200242830,-0.0016752487,0.0001496582,-9.7931620123,-0.0000410183,0.0001064393,-0.0000215439
559087.7300242831,-0.0016723028,-0.0009179608,-9.7933150103,-0.0000627316,0.0000630368,-0.0000323915
559087.7400242829,0.0001623379,-0.0013681771,-9.7930254249,-0.0000410183,0.0001172899,-0.0000215439
559087.7500242830,-0.0004520235,-0.0009129586,-9.7933251602,-0.0000627316,0.0000304849,-0.0000215439
559087.7600242830,-0.0021298788,-0.0006148522,-9.7931585549,-0.0000627316,0.0001064393,-0.0000432391
559087.7700242830,-0.0022812239,-0.0009205313,-9.7931574256,-0.0000518750,0.0000630368,-0.0000323915
559087.7800242830,0.0004643758,-0.0012142607,-9.7933329122,-0.0000518750,0.0001064393,-0.0000323915
559087.7900242830,0.0000013595,-0.0004533631,-9.7936337767,-0.0001061581,0.0000304849,-0.0000323915
559087.8000242830,-0.0019797809,-0.0006140881,-9.7934648431,-0.0000518750,0.0001172899,-0.0000323915
559087.8100242830,-0.0013647959,-0.0009168491,-9.7930125283,-0.0000301617,0.0000413356,-0.0000432391
559087.8200242830,-0.0006039635,-0.0010661107,-9.7933239613,-0.0000627316,0.0001064393,-0.0000215439
559087.8300242830,0.0000079896,-0.0012162060,-9.7931765962,-0.0000518750,0.0000413356,-0.0000540867
559087.8400242830,-0.0018236192,-0.0009186555,-9.7931612318,-0.0000627316,0.0000955887,-0.0000323915
559087.8500242830,-0.0013689890,-0.0001541451,-9.7931646893,-0.0000518750,0.0000413356,-0.0000323915
559087.8600242831,-0.0015173308,-0.0009174744,-9.7930112596,-0.0000627316,0.0001064393,-0.0000215439
559087.8700242830,-0.0013684801,-0.0012216252,-9.7936227068,-0.0000518750,0.0000304849,-0.0000432391
559087.8800242830,-0.0004568115,0.0000022724,-9.7934772515,-0.0000627316,0.0001064393,-0.0000215439
559087.8900242830,-0.0007547136,-0.0015243168,-9.7933229018,-0.0000410183,0.0000413356,-0.0000432391
559087.9000242830,-0.0009071912,-0.0009149733,-9.7930163345,-0.0000301617,0.0001064393,-0.0000432391
559087.9100242830,-0.0013702362,-0.0004590600,-9.7934698483,-0.0000953015,0.0000413356,-0.0000215439
559087.9200242830,-0.0027363916,-0.0009225460,-9.7928485999,-0.0000410183,0.0000955887,-0.0000323915
559087.9300242830,-0.0006069954,-0.0009134450,-9.7936289110,-0.0000410183,0.0000413356,-0.0000323915
559087.9400242830,-0.0002988937,-0.0010648602,-9.7933264987,-0.0000518750,0.0001064393,-0.0000432391
559087.9500242830,-0.0013708598,-0.0006115175,-9.7936224278,-0.0000627316,0.0000196343,-0.0000432391
559087.9600242830,-0.0012158879,-0.0006110311,-9.7933186770,-0.0000518750,0.0001172899,-0.0000432391
559087.9700242830,-0.0013744866,-0.0003063248,-9.7939273078,-0.0000518750,0.0000304849,-0.0000323915
559087.9800242831,0.0007718539,-0.0015181334,-9.7931830794,-0.0000735882,0.0001064393,-0.0000323915
559087.9900242829,-0.0007553086,-0.0013717899,-9.7933228320,-0.0000627316,0.0000196343,0.0000001513
559088.0000242830,-0.0024313218,-0.0009212955,-9.7928511374,-0.0000735882,0.0001172899,-0.0000323915
559088.0100242830,-0.0010621345,-0.0006104753,-9.7931674360,-0.0000410183,0.0000630368,-0.0000323915
559088.0200242830,0.0003069955,-0.0009096239,-9.7937890332,-0.0000301617,0.0001172899,-0.0000323915
559088.0300242830,-0.0010609446,-0.0009155291,-9.7931675755,-0.0000518750,0.0000413356,-0.0000540867
559088.0400242830,0.0003058630,0.0000053988,-9.7934835951,-0.0000953015,0.0001172899,-0.0000432391
559088.0500242830,-0.0007613437,-0.0007614739,-9.7937800823,-0.0000301617,0.0000304849,-0.0000323915
559088.0600242830,-0.0010664136,-0.0007627244,-9.7937775448,-0.0000953015,0.0001172899,-0.0000323915
559088.0700242830,-0.0001518564,-0.0012164146,-9.7940903860,-0.0000627316,0.0000413356,-0.0000432391
559088.0800242830,-0.0012146407,-0.0003061161,-9.7930135180,-0.0000301617,0.0001064393,-0.0000432391
559088.0900242830,-0.0015203628,-0.0007648086,-9.7933162093,-0.0000518750,0.0000413356,-0.0000432391
559088.1000242830,-0.0018182362,-0.0019864133,-9.7930092104,-0.0000410183,0.0000955887,-0.0000323915
559088.1100242831,-0.0004526184,-0.0007604316,-9.7933250905,-0.0000627316,0.0000630368,-0.0000432391
559088.1200242830,0.0003040496,0.0001579951,-9.7936360351,-0.0000735882,0.0000738874,-0.0000215439
559088.1300242830,-0.0016747398,-0.0009178219,-9.7936200299,-0.0000518750,0.0000304849,-0.0000323915
559088.1400242830,-0.0016643681,-0.0007659199,-9.7922473723,-0.0000410183,0.0001172899,-0.0000323915
559088.1500242830,-0.0004623091,-0.0001499073,-9.7942398700,-0.0001061581,0.0000304849,-0.0000323915
559088.1600242830,-0.0009096282,-0.0009148344,-9.7933213540,0.0000024082,0.0001064393,-0.0000323915
559088.1700242830,-0.0009113269,0.0004576996,-9.7928631969,-0.0000627316,0.0000738874,-0.0000323915
559088.1800242830,-0.0006094898,-0.0015232749,-9.7942392291,-0.0001170148,0.0000847381,-0.0000323915
559088.1900242830,-0.0027334457,-0.0019901650,-9.7930015980,-0.0000193051,0.0000304849,-0.0000323915
559088.2000242830,0.0000094088,0.0009186153,-9.7919555416,-0.0001061581,0.0001389912,-0.0000215439
559088.2100242840,-0.0015204488,-0.0016797618,-9.7937741571,-0.0000518750,0.0000087837,-0.0000432391
559088.2200242840,-0.0022818188,-0.0007680044,-9.7931573559,-0.0000084485,0.0001498418,-0.0000323915
559088.2300242840,0.0006151833,-0.0001460859,-9.7930286731,-0.0000627316,0.0000196343,-0.0000323915
559088.2400242840,-0.0004514573,-0.0013704699,-9.7934778793,-0.0000518750,0.0001172899,-0.0000323915
559088.2500242840,-0.0013696413,-0.0006115869,-9.7934699181,-0.0000410183,0.0000087837,-0.0000432391
559088.2600242840,-0.0027401045,-0.0015323065,-9.7936114277,-0.0001061581,0.0001389912,-0.0000323915
559088.2700242840,-0.0006039922,-0.0013710951,-9.7934766105,-0.0000627316,0.0000738874,-0.0000323915
559088.2800242840,0.0010709459,-0.0002965981,-9.7933375686,-0.0000193051,0.0001064393,-0.0000432391
559088.2900242840,-0.0010633816,-0.0009153902,-9.7934725951,-0.0000735882,0.0000413356,-0.0000215439
559088.3000242840,-0.0021281227,-0.0013774174,-9.7933114134,-0.0000518750,0.0000847381,-0.0000323915
559088.3100242839,0.0000062048,-0.0007586252,-9.7931763869,-0.0000518750,0.0000738874,-0.0000215439
559088.3200242840,0.0021357157,0.0004704134,-9.7933461010,-0.0000953015,0.0000955887,-0.0000215439
559088.3300242840,-0.0003001408,-0.0013697752,-9.7936316578,-0.0000410183,0.0000630368,-0.0000323915
559088.3400242840,-0.0033477784,-0.0012299621,-9.7931486840,-0.0000410183,0.0000738874,-0.0000432391
559088.3500242840,-0.0002976465,-0.0007599452,-9.7930213397,-0.0000953015,0.0000738874,-0.0000323915
559088.3600242840,0.0007645716,-0.0012127324,-9.7939454887,-0.0000301617,0.0000738874,-0.0000432391
559088.3700242840,-0.0016698371,-0.0006131153,-9.7928573416,-0.0000410183,0.0000304849,-0.0000323915
559088.3800242840,-0.0033531900,-0.0004671886,-9.7934533547,-0.0000953015,0.0001064393,-0.0000323915
559088.3900242840,0.0003070529,-0.0002996551,-9.7934837347,-0.0000627316,0.0000630368,-0.0000432391
559088.4000242840,0.0004602400,0.0001584121,-9.7931797746,-0.0000518750,0.0000847381,-0.0000323915
559088.4100242840,-0.0004508337,-0.0012180124,-9.7933252998,-0.0000518750,0.0000630368,-0.0000432391
559088.4200242840,-0.0015149798,-0.0018325664,-9.7931641879,-0.0000410183,0.0001064393,-0.0000540867
559088.4300242841,-0.0009137926,0.0001528540,-9.7933208657,-0.0000410183,0.0000630368,-0.0000432391
559088.4400242839,0.0006139648,-0.0001460165,-9.7931811829,-0.0000627316,0.0000847381,-0.0000432391
559088.4500242840,-0.0002977612,-0.0019798828,-9.7936319368,-0.0000518750,0.0000413356,-0.0000323915
559088.4600242840,-0.0016656440,-0.0013758193,-9.7927051806,-0.0001061581,0.0000955887,-0.0000323915
559088.4700242840,-0.0022872017,0.0002997535,-9.7933093773,-0.0000518750,0.0000630368,-0.0000323915
559088.4800242840,0.0010763575,-0.0010593716,-9.7930328979,-0.0000084485,0.0000955887,-0.0000323915
559088.4900242840,0.0001605532,-0.0009105963,-9.7930252157,-0.0000627316,0.0000413356,-0.0000432391
559088.5000242840,-0.0025875122,-0.0009217124,-9.7933073979,-0.0000627316,0.0000847381,-0.0000215439
559088.5100242840,-0.0018326576,0.0001493107,-9.7937707826,-0.0000627316,0.0000738874,-0.0000323915
559088.5200242840,0.0012246993,-0.0002960423,-9.7931863276,-0.0000735882,0.0000955887,-0.0000323915
559088.5300242840,-0.0007528429,-0.0010669443,-9.7928651633,-0.0000627316,0.0000304849,-0.0000323915
559088.5400242840,-0.0031982754,-0.0010766710,-9.7934549025,-0.0000301617,0.0000955887,-0.0000323915
559088.5500242840,-0.0007605768,0.0009159056,-9.7928642564,-0.0000627316,0.0000738874,-0.0000432391
559088.5600242839,0.0010794181,-0.0009070530,-9.7925752988,-0.0000193051,0.0000738874,-0.0000323915
559088.5700242840,-0.0001464161,-0.0016742037,-9.7936330660,-0.0000410183,0.0000630368,-0.0000323915
559088.5800242840,-0.0027382624,-0.0013799185,-9.7933063385,-0.0001170148,0.0000955887,-0.0000215439
559088.5900242840,-0.0009155774,0.0006104348,-9.7933206565,-0.0000735882,0.0000847381,-0.0000215439
559088.6000242840,0.0018281802,0.0001643173,-9.7938012323,-0.0000301617,0.0000738874,-0.0000323915
559088.6100242840,-0.0018261135,-0.0015284854,-9.7937715499,-0.0000735882,0.0000413356,-0.0000432391
559088.6200242840,-0.0031928638,-0.0018394445,-9.7931502318,-0.0000518750,0.0000955887,-0.0000432391
559088.6300242840,-0.0007618240,0.0006109906,-9.7931694154,-0.0000410183,0.0000738874,-0.0000323915
559088.6400242840,0.0013729838,-0.0001426818,-9.7936450558,-0.0000627316,0.0000738874,-0.0000215439
559088.6500242840,-0.0012039322,-0.0030516007,-9.7930147736,-0.0000518750,0.0000413356,-0.0000215439
559088.6600242840,-0.0019822179,-0.0006139492,-9.7937698626,-0.0001061581,0.0000955887,-0.0000215439
559088.6700242840,-0.0007587634,0.0007633092,-9.7927118164,-0.0000735882,0.0000738874,-0.0000540867
559088.6800242841,0.0004631860,-0.0009092069,-9.7933327727,0.0000024082,0.0000738874,-0.0000323915
559088.6900242839,-0.0006003940,-0.0019812723,-9.7933243798,-0.0000627316,0.0000630368,-0.0000432391
559088.7000242840,-0.0018260562,-0.0009185166,-9.7934662514,-0.0000953015,0.0000955887,-0.0000215439
559088.7100242840,-0.0006062571,0.0004589501,-9.7928657344,-0.0000301617,0.0000413356,-0.0000323915
559088.7200242840,-0.0003036530,0.0001553551,-9.7933259407,-0.0000627316,0.0000847381,-0.0000323915
559088.7300242840,-0.0018237339,-0.0021385931,-9.7937718289,-0.0001278714,0.0000738874,-0.0000323915
559088.7400242840,-0.0019761254,-0.0006142964,-9.7930073138,-0.0000301617,0.0000955887,-0.0000432391
559088.7500242840,-0.0015311286,0.0013707071,-9.7936202523,-0.0000518750,0.0000738874,-0.0000432391
559088.7600242840,-0.0002989223,-0.0013698446,-9.7934791480,-0.0000410183,0.0000955887,-0.0000323915
559088.7700242840,-0.0005973621,-0.0021339380,-9.7930194300,-0.0000410183,0.0000304849,-0.0000432391
559088.7800242840,-0.0024391704,-0.0001583831,-9.7934608276,-0.0001061581,0.0000955887,-0.0000215439
559088.7900242840,-0.0016752773,-0.0001553262,-9.7933146616,-0.0000627316,0.0000738874,-0.0000540867
559088.8000242840,0.0006162871,-0.0013660929,-9.7934867604,-0.0000301617,0.0000847381,-0.0000432391
559088.8100242839,-0.0001530462,-0.0009113608,-9.7940902465,-0.0000627316,0.0000630368,-0.0000323915
559088.8200242840,-0.0022793531,-0.0004631589,-9.7926996871,-0.0000518750,0.0000738874,-0.0000323915
559088.8300242840,-0.0018272173,-0.0003084784,-9.7933134626,-0.0000301617,0.0000738874,-0.0000432391
559088.8400242840,-0.0003019256,-0.0009121944,-9.7936314485,-0.0000953015,0.0000738874,-0.0000323915
559088.8500242840,-0.0019725559,-0.0015294579,-9.7930077324,-0.0000953015,0.0000738874,-0.0000432391
559088.8600242840,-0.0003042766,0.0000028977,-9.7934785202,-0.0000627316,0.0000847381,-0.0000323915
559088.8700242840,-0.0003036817,-0.0001496293,-9.7934785900,-0.0000410183,0.0000738874,-0.0000432391
559088.8800242840,-0.0010573178,-0.0012207218,-9.7928626955,-0.0000518750,0.0000955887,-0.0000323915
559088.8900242840,-0.0016704893,-0.0010705571,-9.7931625703,-0.0000518750,0.0000413356,-0.0000215439
559088.9000242840,-0.0015251508,0.0001504224,-9.7934683005,-0.0000518750,0.0000955887,-0.0000323915
559088.9100242840,-0.0009090333,-0.0010673613,-9.7933214238,-0.0000518750,0.0000738874,-0.0000323915
559088.9200242840,0.0000073660,-0.0013686635,-9.7933291757,-0.0000735882,0.0000955887,-0.0000323915
559088.9300242841,-0.0006051246,-0.0004560725,-9.7931711725,-0.0000735882,0.0000630368,-0.0000540867
559088.9400242839,-0.0016801514,-0.0001550484,-9.7939247006,-0.0000410183,0.0000955887,-0.0000323915
559088.9500242840,-0.0009084097,-0.0009149038,-9.7931688443,-0.0000301617,0.0000738874,-0.0000432391
559088.9600242840,-0.0001475773,-0.0010641655,-9.7934802772,-0.0000518750,0.0000738874,-0.0000323915
559088.9700242840,-0.0006045871,-0.0012185682,-9.7934765408,-0.0000627316,0.0000413356,-0.0000215439
559088.9800242840,-0.0015196532,0.0003026021,-9.7927056820,-0.0000627316,0.0000955887,-0.0000323915
559088.9900242840,-0.0010621058,-0.0003054909,-9.7930147868,-0.0000735882,0.0000630368,-0.0000432391
559089.0000242840,0.0009243602,-0.0018224926,-9.7933369974,-0.0000410183,0.0000847381,-0.0000323915
559089.0100242840,-0.0007619387,-0.0006089470,-9.7937800125,-0.0000735882,0.0000630368,-0.0000432391
559089.0200242840,-0.0016668051,-0.0007657810,-9.7925523918,-0.0000410183,0.0000955887,-0.0000323915
559089.0300242840,-0.0006009316,-0.0012187765,-9.7930190115,-0.0000193051,0.0000413356,-0.0000432391
559089.0400242840,-0.0006070241,-0.0012184294,-9.7937815603,-0.0000627316,0.0000738874,-0.0000432391
559089.0500242840,-0.0007576309,-0.0001517134,-9.7930172545,-0.0000953015,0.0000630368,-0.0000323915
559089.0600242839,-0.0010670085,-0.0006101975,-9.7937774751,-0.0000410183,0.0000847381,-0.0000432391
559089.0700242840,-0.0024356009,-0.0010735446,-9.7934612462,-0.0000518750,0.0000738874,-0.0000432391
559089.0800242840,-0.0001481722,-0.0009116386,-9.7934802075,-0.0000735882,0.0000847381,-0.0000323915
559089.0900242840,-0.0004519948,-0.0006079742,-9.7931725110,-0.0000084485,0.0000630368,-0.0000323915
559089.1000242840,-0.0004574064,0.0001547993,-9.7934771817,-0.0000627316,0.0000847381,0.0000001513
559089.1100242840,-0.0021274418,-0.0006149911,-9.7928535353,-0.0000953015,0.0000630368,-0.0000323915
559089.1200242840,-0.0018248377,-0.0009185860,-9.7933137416,-0.0000301617,0.0000955887,-0.0000432391
559089.1300242840,-0.0003000262,-0.0001498376,-9.7930210607,-0.0001061581,0.0000630368,-0.0000432391
559089.1400242840,-0.0002971089,-0.0015224409,-9.7933267080,-0.0000518750,0.0000847381,-0.0000432391
559089.1500242840,-0.0012134795,-0.0009161544,-9.7931663068,-0.0000193051,0.0000630368,-0.0000432391
559089.1600242840,-0.0015245559,-0.0000021046,-9.7934683703,-0.0000627316,0.0000955887,-0.0000215439
559089.1700242840,-0.0006039922,-0.0013710951,-9.7934766105,-0.0000953015,0.0000630368,-0.0000323915
559089.1800242841,-0.0015245845,-0.0003070889,-9.7936210196,-0.0000410183,0.0000738874,-0.0000323915
559089.1900242839,-0.0016686186,-0.0006131847,-9.7927048318,-0.0000953015,0.0000738874,-0.0000432391
559089.2000242840,-0.0009065963,-0.0010675002,-9.7930164043,-0.0000627316,0.0000955887,-0.0000432391
559089.2100242840,-0.0002952381,-0.0010650685,-9.7928689695,-0.0000084485,0.0000630368,-0.0000323915
559089.2200242840,-0.0004537509,0.0001545910,-9.7930196524,-0.0000518750,0.0000738874,-0.0000215439
559089.2300242840,-0.0012080393,-0.0013739434,-9.7927089868,-0.0000410183,0.0000738874,-0.0000323915
559089.2400242840,-0.0025833191,-0.0016844165,-9.7931552369,-0.0000518750,0.0000738874,-0.0000323915
559089.2500242840,-0.0004568402,-0.0003027120,-9.7936299007,-0.0001170148,0.0000738874,-0.0000323915
559089.2600242840,-0.0003043053,-0.0003020867,-9.7936311695,-0.0000735882,0.0000738874,-0.0000432391
559089.2700242840,-0.0019743980,-0.0016818459,-9.7933128217,-0.0000084485,0.0000738874,-0.0000323915
559089.2800242840,-0.0016728977,-0.0007654339,-9.7933149406,-0.0000953015,0.0000847381,-0.0000323915
559089.2900242850,0.0000050437,-0.0001485870,-9.7930235982,-0.0000953015,0.0000630368,-0.0000432391
559089.3000242850,-0.0007546563,-0.0009143480,-9.7930176033,-0.0000084485,0.0000847381,-0.0000432391
559089.3100242850,-0.0015203914,-0.0010697930,-9.7934688586,-0.0000627316,0.0000738874,-0.0000323915
559089.3200242850,-0.0012092578,-0.0013738740,-9.7928614966,-0.0001061581,0.0000955887,-0.0000215439
559089.3300242850,-0.0001468677,0.0000032452,-9.7928697499,-0.0000518750,0.0000738874,-0.0000432391
559089.3400242850,-0.0006087228,0.0001541046,-9.7933234032,-0.0000627316,0.0000738874,-0.0000215439
559089.3500242850,-0.0015144710,-0.0029000465,-9.7936222054,-0.0000084485,0.0000955887,-0.0000540867
559089.3600242850,-0.0012147554,-0.0015260537,-9.7936241151,-0.0000518750,0.0000738874,-0.0000432391
559089.3700242850,-0.0001504658,0.0006134223,-9.7930219806,-0.0000735882,0.0000630368,-0.0000323915
559089.3800242851,-0.0018320627,-0.0000032162,-9.7937708523,-0.0000410183,0.0000738874,-0.0000540867
559089.3900242849,-0.0009078721,-0.0016773995,-9.7934742126,-0.0000518750,0.0000738874,-0.0000432391
559089.4000242850,-0.0021281514,-0.0016824017,-9.7934640627,-0.0000953015,0.0000847381,-0.0000323915
559089.4100242850,-0.0001462441,0.0001557027,-9.7927171704,-0.0000627316,0.0000738874,-0.0000215439
559089.4200242850,0.0000038538,0.0001564668,-9.7930234586,-0.0000301617,0.0000738874,-0.0000540867
559089.4300242850,-0.0009084957,-0.0018298570,-9.7936267921,-0.0000301617,0.0000738874,-0.0000323915
559089.4400242850,-0.0013642297,-0.0013743604,-9.7931652473,-0.0000953015,0.0001064393,-0.0000323915
559089.4500242850,-0.0007642610,0.0006111295,-9.7934744350,-0.0000627316,0.0000738874,-0.0000432391
559089.4600242850,0.0004614299,-0.0001466417,-9.7931799141,-0.0000518750,0.0000738874,-0.0000540867
559089.4700242850,-0.0018212968,-0.0021387319,-9.7934668094,-0.0000410183,0.0000738874,-0.0000323915
559089.4800242850,-0.0015234234,-0.0009171272,-9.7937738084,-0.0000735882,0.0000738874,-0.0000323915
559089.4900242850,-0.0000015578,0.0009192403,-9.7933281294,-0.0000518750,0.0000738874,-0.0000432391
559089.5000242851,-0.0004580587,-0.0003026426,-9.7937824105,-0.0000301617,0.0000955887,-0.0000432391
559089.5100242849,-0.0012105623,-0.0022887578,-9.7934719541,-0.0000627316,0.0000738874,-0.0000215439
559089.5200242850,-0.0012141031,-0.0010686119,-9.7933188863,-0.0000953015,0.0000847381,-0.0000323915
559089.5300242850,-0.0003084123,0.0013755705,-9.7933253826,-0.0000735882,0.0000630368,-0.0000432391
559089.5400242850,0.0001563027,-0.0007578611,-9.7934826752,-0.0000193051,0.0000738874,-0.0000323915
559089.5500242850,-0.0010531820,-0.0025933946,-9.7930158331,-0.0000410183,0.0000738874,-0.0000432391
559089.5600242850,-0.0015222049,-0.0009171966,-9.7936212986,-0.0000627316,0.0000955887,-0.0000323915
559089.5700242850,-0.0004634416,0.0007651153,-9.7939344320,-0.0000410183,0.0000630368,-0.0000432391
559089.5800242850,0.0003082427,-0.0006047089,-9.7934838742,-0.0000301617,0.0000955887,0.0000001513
559089.5900242850,-0.0024272147,-0.0025989527,-9.7931569242,-0.0000953015,0.0000413356,-0.0000432391
559089.6000242850,-0.0010579700,-0.0016781637,-9.7931679243,-0.0000627316,0.0000955887,-0.0000323915
559089.6100242850,0.0002987240,0.0018357218,-9.7934827581,-0.0000410183,0.0000738874,-0.0000432391
559089.6200242850,-0.0012129133,-0.0013736657,-9.7933190258,-0.0000193051,0.0000738874,-0.0000323915
559089.6300242851,0.0001676061,-0.0036558725,-9.7934840006,-0.0000518750,0.0000630368,-0.0000323915
559089.6400242849,-0.0015227424,-0.0001547009,-9.7933159303,-0.0001170148,0.0001064393,-0.0000432391
559089.6500242850,0.0002987240,0.0018357218,-9.7934827581,-0.0000518750,0.0000738874,-0.0000323915
559089.6600242850,-0.0012171637,-0.0012209305,-9.7937764853,-0.0000301617,0.0000738874,-0.0000432391
559089.6700242850,-0.0002929445,-0.0025901294,-9.7933271963,-0.0000953015,0.0000738874,-0.0000432391
559089.6800242850,-0.0013659571,-0.0003068109,-9.7928597395,-0.0000518750,0.0000738874,-0.0000432391
559089.6900242850,-0.0003059753,0.0013754316,-9.7930203631,-0.0000193051,0.0000738874,-0.0000432391
559089.7000242850,-0.0016692995,-0.0013756110,-9.7931627099,-0.0000410183,0.0000738874,-0.0000215439
559089.7100242850,-0.0018207593,-0.0029012277,-9.7937721777,-0.0000953015,0.0000738874,-0.0000215439
559089.7200242850,0.0003022935,0.0009205603,-9.7934831766,-0.0000953015,0.0000738874,-0.0000323915
559089.7300242850,-0.0012248690,0.0010669039,-9.7936229292,-0.0000735882,0.0000738874,-0.0000432391
559089.7400242850,-0.0016687046,-0.0015281379,-9.7931627796,0.0000024082,0.0000738874,-0.0000432391
559089.7500242851,-0.0010556190,-0.0025932558,-9.7933208526,-0.0000735882,0.0000738874,-0.0000432391
559089.7600242849,-0.0006068807,0.0003064926,-9.7930183139,-0.0000735882,0.0000847381,-0.0000323915
559089.7700242850,0.0000051297,0.0007663662,-9.7925656503,-0.0000410183,0.0000630368,0.0000001513
559089.7800242850,-0.0022800341,-0.0012255852,-9.7931575652,-0.0000410183,0.0000847381,-0.0000323915
559089.7900242850,-0.0015156321,-0.0022900083,-9.7934694166,-0.0001170148,0.0000738874,-0.0000323915
559089.8000242850,-0.0000058656,0.0004620067,-9.7940908874,-0.0000735882,0.0000847381,-0.0000432391
559089.8100242850,-0.0009191756,0.0012206119,-9.7934728872,-0.0000084485,0.0000630368,-0.0000432391
559089.8200242850,-0.0007583405,-0.0012191241,-9.7936277818,-0.0000518750,0.0000955887,-0.0000432391
559089.8300242850,-0.0016633217,-0.0025958957,-9.7930107581,-0.0000735882,0.0000630368,-0.0000323915
559089.8400242850,0.0001497300,0.0006149506,-9.7936345571,-0.0000518750,0.0000847381,-0.0000215439
559089.8500242850,-0.0003030007,0.0006127970,-9.7930207119,-0.0000518750,0.0000630368,-0.0000215439
559089.8600242850,-0.0018194834,-0.0022913283,-9.7933143694,-0.0000518750,0.0000847381,-0.0000432391
559089.8700242850,-0.0004405480,-0.0019810636,-9.7924105900,-0.0000735882,0.0000738874,-0.0000540867
559089.8800242851,-0.0004561306,0.0007646987,-9.7930193734,-0.0000627316,0.0000847381,-0.0000540867
559089.8900242849,-0.0004610619,0.0001550076,-9.7939347110,-0.0000193051,0.0000738874,-0.0000215439
559089.9000242850,-0.0013649393,-0.0024417711,-9.7937757747,-0.0000410183,0.0000738874,-0.0000323915
559089.9100242850,-0.0004526758,-0.0013704004,-9.7936303890,-0.0001061581,0.0000738874,-0.0000323915
559089.9200242850,-0.0010662989,0.0004572132,-9.7931669477,-0.0000627316,0.0000738874,-0.0000215439
559089.9300242850,-0.0015251221,0.0004554068,-9.7933156513,-0.0000518750,0.0000847381,-0.0000540867
559089.9400242850,-0.0024320887,-0.0025986749,-9.7937669633,-0.0000518750,0.0000630368,-0.0000323915
559089.9500242850,-0.0005985232,-0.0015238998,-9.7928666413,-0.0000735882,0.0000847381,-0.0000432391
559089.9600242850,-0.0001539780,0.0021385526,-9.7927162636,-0.0000518750,0.0000630368,-0.0000323915
559089.9700242850,-0.0013720783,-0.0006114481,-9.7937749376,-0.0000301617,0.0000847381,-0.0000215439
559089.9800242850,-0.0016639166,-0.0024433688,-9.7930106884,-0.0000735882,0.0000630368,-0.0000323915
559089.9900242850,-0.0004525897,-0.0004554472,-9.7931724412,-0.0001170148,0.0000847381,-0.0000540867
559090.0000242851,-0.0003018109,0.0003077432,-9.7930208514,-0.0000193051,0.0000738874,-0.0000432391
559090.0100242849,-0.0006093464,0.0000016471,-9.7934759827,-0.0000301617,0.0000738874,-0.0000649343
559090.0200242850,-0.0019720183,-0.0022919536,-9.7933131007,-0.0000627316,0.0000738874,-0.0000323915
559090.0300242850,-0.0010639766,-0.0007628633,-9.7934725253,-0.0000627316,0.0000847381,-0.0000323915
559090.0400242850,-0.0007678592,0.0012213066,-9.7936266657,-0.0000735882,0.0000738874,-0.0000323915
559090.0500242850,-0.0013685375,-0.0018315940,-9.7939280054,-0.0000735882,0.0000738874,-0.0000323915
559090.0600242850,-0.0018254613,-0.0010710435,-9.7934663211,-0.0000953015,0.0000738874,-0.0000432391
559090.0700242850,0.0000001983,0.0001566751,-9.7934809879,-0.0000953015,0.0000738874,-0.0000432391
559090.0800242850,-0.0013732395,-0.0000014098,-9.7936221488,-0.0000193051,0.0000847381,-0.0000432391
559090.0900242850,-0.0021323158,-0.0006147133,-9.7934635744,-0.0000410183,0.0000738874,-0.0000215439
559090.1000242850,-0.0004515146,-0.0019804387,-9.7937831778,-0.0000627316,0.0000738874,-0.0000323915
559090.1100242850,-0.0004574351,-0.0001501851,-9.7936298310,-0.0001061581,0.0000738874,-0.0000215439
559090.1200242850,-0.0013737484,0.0010660703,-9.7931641312,-0.0000518750,0.0000847381,-0.0000432391
559090.1300242851,0.0001641227,-0.0018257578,-9.7930256342,-0.0000301617,0.0000630368,-0.0000432391
559090.1400242849,-0.0022801774,-0.0027505071,-9.7939208115,-0.0000735882,0.0000847381,-0.0000432391
559090.1500242850,-0.0010681123,0.0006098095,-9.7933193877,-0.0000627316,0.0000738874,-0.0000323915
559090.1600242850,0.0003023796,0.0018355135,-9.7930252288,-0.0000193051,0.0000847381,-0.0000323915
559090.1700242850,-0.0005992042,-0.0022863261,-9.7933245193,-0.0000301617,0.0000738874,-0.0000323915
559090.1800242850,-0.0025840001,-0.0024468427,-9.7936131150,-0.0001278714,0.0000738874,-0.0000215439
559090.1900242850,-0.0007624476,0.0004585331,-9.7933219950,-0.0000953015,0.0000847381,-0.0000323915
559090.2000242850,0.0009166263,0.0001603574,-9.7933360906,-0.0000301617,0.0000738874,-0.0000432391
559090.2100242850,-0.0002982988,-0.0012173871,-9.7933265685,-0.0000518750,0.0000738874,-0.0000323915
559090.2200242850,-0.0016651638,-0.0027482838,-9.7933158474,-0.0000627316,0.0000738874,-0.0000323915
559090.2300242850,-0.0016764098,0.0007596964,-9.7930092235,-0.0000735882,0.0001064393,-0.0000215439
559090.2400242850,0.0001509771,0.0009198656,-9.7933293981,-0.0000627316,0.0000738874,-0.0000215439
559090.2500242851,-0.0012069068,-0.0022889661,-9.7930144248,-0.0000410183,0.0000738874,-0.0000323915
559090.2600242849,-0.0018243288,-0.0019860662,-9.7937717592,-0.0001061581,0.0000413356,-0.0000323915
559090.2700242850,-0.0009137353,0.0007628228,-9.7930155672,-0.0000953015,0.0001064393,-0.0000323915
559090.2800242850,0.0004559896,0.0003111473,-9.7936372341,0.0000024082,0.0000738874,-0.0000432391
559090.2900242850,0.0001676635,-0.0030459037,-9.7931787020,-0.0000735882,0.0000847381,-0.0000215439
559090.3000242850,-0.0013679426,-0.0019841209,-9.7939280751,-0.0000410183,0.0000630368,-0.0000215439
559090.3100242850,-0.0018422049,0.0022847570,-9.7939223158,-0.0000627316,0.0000955887,-0.0000323915
559090.3200242850,-0.0007606341,0.0003059368,-9.7931695550,-0.0000735882,0.0000630368,-0.0000432391
559090.3300242850,0.0003135683,-0.0022824355,-9.7936371513,-0.0000301617,0.0000304849,-0.0000323915
559090.3400242850,-0.0013629825,-0.0010694454,-9.7928600883,-0.0001061581,0.0000847381,-0.0000432391
559090.3500242850,-0.0015191156,-0.0004598936,-9.7930110503,0.0000024082,0.0000847381,-0.0000215439
559090.3600242860,-0.0009197991,0.0010681544,-9.7936254667,-0.0000518750,0.0000955887,-0.0000323915
559090.3700242860,-0.0008952355,-0.0033555428,-9.7927124311,-0.0000627316,0.0000847381,-0.0000432391
559090.3800242860,-0.0012183536,-0.0009158766,-9.7937763458,-0.0000518750,0.0000087837,-0.0000323915
559090.3900242860,-0.0021436479,0.0019783137,-9.7936148983,-0.0001170148,0.0000738874,-0.0000432391
559090.4000242860,0.0001593346,-0.0009105269,-9.7931777254,-0.0000193051,0.0001281405,-0.0000432391
559090.4100242860,0.0004696727,-0.0031969718,-9.7936388385,-0.0000627316,0.0000738874,-0.0000432391
559090.4200242860,-0.0012159165,-0.0009160155,-9.7934713263,-0.0000627316,0.0000413356,-0.0000323915
559090.4300242860,-0.0018325142,0.0016742327,-9.7930075362,-0.0000193051,0.0000955887,-0.0000215439
559090.4400242860,-0.0001535838,-0.0001488651,-9.7937848782,-0.0000518750,0.0000738874,-0.0000323915
559090.4500242861,-0.0001367827,-0.0028946968,-9.7930235850,-0.0000953015,0.0000738874,-0.0000432391
559090.4600242859,-0.0013642297,-0.0013743604,-9.7931652473,-0.0000953015,0.0000413356,-0.0000323915
559090.4700242860,-0.0022883342,0.0012147761,-9.7930039393,-0.0000410183,0.0000738874,-0.0000432391
559090.4800242860,-0.0010663849,-0.0004577400,-9.7936248955,-0.0000301617,0.0000738874,-0.0000323915
559090.4900242860,0.0001622519,-0.0022831303,-9.7934833728,-0.0000518750,0.0000738874,-0.0000323915
559090.5000242860,-0.0007637234,-0.0001513662,-9.7937798033,-0.0000735882,0.0000738874,-0.0000215439
559090.5100242860,-0.0026007437,0.0009089578,-9.7940691096,-0.0000735882,0.0000738874,-0.0000323915
559090.5200242860,-0.0012147267,-0.0012210693,-9.7934714658,-0.0000518750,0.0000955887,-0.0000540867
559090.5300242860,0.0009273921,-0.0019751584,-9.7930320477,-0.0000627316,0.0000738874,-0.0000323915
559090.5400242860,-0.0007570073,0.0000007441,-9.7928646750,-0.0000518750,0.0000738874,-0.0000649343
559090.5500242860,-0.0012212421,0.0007617111,-9.7933180492,-0.0000410183,0.0000630368,-0.0000215439
559090.5600242860,-0.0009059727,-0.0009150427,-9.7928638248,-0.0000301617,0.0000955887,-0.0000323915
559090.5700242860,0.0007742623,-0.0018232567,-9.7930307092,-0.0000953015,0.0000738874,-0.0000432391
559090.5800242861,-0.0013666667,-0.0013742215,-9.7934702668,-0.0000301617,0.0000738874,-0.0000215439
559090.5900242859,-0.0025977118,0.0007562920,-9.7937641599,-0.0001061581,0.0000738874,-0.0000432391
559090.6000242860,-0.0013642297,-0.0013743604,-9.7931652473,-0.0000627316,0.0000955887,-0.0000540867
559090.6100242860,-0.0001463588,-0.0010642349,-9.7933277675,-0.0000084485,0.0000630368,-0.0000323915
559090.6200242860,-0.0001517417,0.0000035229,-9.7934797889,-0.0000735882,0.0000738874,-0.0000215439
559090.6300242860,-0.0021274418,-0.0006149911,-9.7928535353,-0.0000193051,0.0000738874,0.0000001513
559090.6400242860,0.0003082427,-0.0006047089,-9.7934838742,-0.0000735882,0.0000955887,-0.0000323915
559090.6500242860,-0.0001464161,-0.0016742037,-9.7936330660,-0.0000735882,0.0000630368,-0.0000323915
559090.6600242860,-0.0012165115,-0.0007634886,-9.7934712566,-0.0000301617,0.0000738874,-0.0000432391
559090.6700242860,-0.0021371325,-0.0000044668,-9.7937683149,-0.0001061581,0.0000738874,-0.0000540867
559090.6800242860,-0.0007523340,-0.0021344244,-9.7933231808,0.0000241214,0.0000738874,-0.0000432391
559090.6900242860,0.0003046732,0.0003104526,-9.7934834556,-0.0001278714,0.0000738874,-0.0000215439
559090.7000242861,-0.0012057456,-0.0028990043,-9.7931672136,0.0000675479,0.0000847381,-0.0000323915
559090.7100242859,-0.0019941163,0.0024365892,-9.7937684675,-0.0002690076,0.0000738874,-0.0000540867
559090.7200242860,-0.0005927174,-0.0045740910,-9.7936305852,0.0001435444,0.0001064393,-0.0000106963
559090.7300242860,0.0005953790,0.0030573960,-9.7939422668,-0.0003341473,0.0000630368,-0.0000540867
559090.7400242860,-0.0019667214,-0.0042746646,-9.7936190270,0.0002195408,0.0000847381,-0.0000323915
559090.7500242860,-0.0012337927,0.0033548076,-9.7936218829,-0.0003232907,0.0000738874,-0.0000323915
559090.7600242860,0.0000211064,-0.0042668138,-9.7930254816,0.0002086841,0.0000847381,-0.0000323915
559090.7700242860,-0.0006171377,0.0013745282,-9.7937803744,-0.0003341473,0.0000413356,-0.0000432391
559090.7800242860,-0.0019647933,-0.0032073234,-9.7928559899,0.0001978275,0.0000847381,-0.0000432391
559090.7900242860,-0.0004711182,0.0033579340,-9.7936282266,-0.0003341473,0.0000955887,-0.0000432391
559090.8000242860,-0.0012087489,-0.0024413541,-9.7933195141,0.0001326877,0.0000738874,-0.0000540867
559090.8100242860,-0.0006003653,-0.0016762879,-9.7931717305,-0.0001930112,0.0000847381,-0.0000540867
559090.8200242860,-0.0016812839,0.0007599742,-9.7936192625,0.0000241214,0.0000304849,-0.0000215439
559090.8300242861,-0.0015137900,-0.0021376203,-9.7931643274,-0.0001061581,0.0001064393,-0.0000432391
559090.8400242859,-0.0001577195,0.0012238077,-9.7936317406,-0.0000193051,0.0000304849,-0.0000215439
559090.8500242860,-0.0005920652,-0.0041166491,-9.7933253564,-0.0001278714,0.0001389912,-0.0000432391
559090.8600242860,-0.0009311599,0.0033561970,-9.7939294399,-0.0000301617,0.0000304849,-0.0000323915
559090.8700242860,-0.0011997104,-0.0035093203,-9.7927099634,-0.0000518750,0.0000955887,-0.0000215439
559090.8800242860,-0.0006195173,0.0019846359,-9.7937800954,-0.0000518750,0.0000738874,-0.0000540867
559090.8900242860,-0.0008922896,-0.0044231618,-9.7928654292,-0.0000193051,0.0001064393,-0.0000215439
559090.9000242860,-0.0004729603,0.0032055460,-9.7939333159,-0.0001278714,0.0000304849,-0.0000323915
559090.9100242860,-0.0008994286,-0.0025928388,-9.7928645921,0.0000132648,0.0001064393,-0.0000215439
559090.9200242860,-0.0009155487,0.0009154192,-9.7931680072,-0.0001930112,0.0000304849,-0.0000432391
559090.9300242860,-0.0004444043,-0.0041157461,-9.7939366642,0.0000566913,0.0000955887,-0.0000323915
559090.9400242860,-0.0009245011,0.0028983385,-9.7933196101,-0.0002472943,0.0000413356,-0.0000432391
559090.9500242861,-0.0010555904,-0.0022882714,-9.7931682033,0.0001435444,0.0001064393,-0.0000106963
559090.9600242859,-0.0006177613,0.0012220708,-9.7939329539,-0.0002364377,0.0000087837,-0.0000323915
559090.9700242860,-0.0010509171,-0.0044234399,-9.7936267092,0.0001761142,0.0001064393,-0.0000323915
559090.9800242860,-0.0004680862,0.0032052682,-9.7933232768,-0.0003775739,0.0000413356,-0.0000432391
559090.9900242860,-0.0018170751,-0.0025964516,-9.7931619992,0.0002412540,0.0000847381,-0.0000323915
559091.0000242860,-0.0012213281,-0.0001532420,-9.7937759970,-0.0003124341,0.0000413356,-0.0000432391
559091.0100242860,-0.0008965401,-0.0042704266,-9.7933228887,0.0001544010,0.0000847381,-0.0000323915
559091.0200242860,-0.0000057795,0.0013769599,-9.7936329396,-0.0002798642,0.0000630368,-0.0000215439
559091.0300242860,-0.0012200523,0.0004566573,-9.7933181887,0.0001544010,0.0000738874,-0.0000106963
559091.0400242860,0.0003160053,-0.0022825744,-9.7933321317,-0.0002147244,0.0000738874,-0.0000432391
559091.0500242860,-0.0006088662,-0.0013708174,-9.7940866496,0.0000241214,0.0000738874,-0.0000432391
559091.0600242860,-0.0013521593,-0.0025949924,-9.7922507468,-0.0001278714,0.0000738874,-0.0000323915
559091.0700242860,-0.0003215865,0.0038162095,-9.7937817958,-0.0000410183,0.0000738874,-0.0000540867
559091.0800242861,-0.0004353372,-0.0048787278,-9.7931744641,-0.0000084485,0.0000955887,-0.0000432391
559091.0900242859,-0.0016884802,0.0019803284,-9.7939237240,-0.0001061581,0.0000413356,-0.0000323915
559091.1000242860,-0.0018110686,-0.0035117520,-9.7928573982,-0.0000193051,0.0001064393,-0.0000323915
559091.1100242860,-0.0015412709,0.0036586803,-9.7937717157,-0.0001061581,0.0000413356,-0.0000432391
559091.1200242860,-0.0002816411,-0.0054881408,-9.7933285217,-0.0000084485,0.0001064393,-0.0000432391
559091.1300242860,-0.0010759896,0.0010677374,-9.7940817273,-0.0001495846,0.0000196343,-0.0000323915
559091.1400242860,-0.0005924880,-0.0021342158,-9.7924093910,0.0000349781,0.0001281405,-0.0000432391
559091.1500242860,-0.0013936387,0.0033545990,-9.7945356727,-0.0001170148,-0.0000020669,-0.0000215439
559091.1600242860,-0.0019601487,-0.0056474763,-9.7934671451,0.0000892612,0.0001606924,-0.0000106963
559091.1700242860,0.0009071076,0.0026007880,-9.7933349745,-0.0002472943,0.0000196343,-0.0000432391
559091.1800242860,-0.0005955773,-0.0025915188,-9.7930196393,0.0001109745,0.0001064393,-0.0000649343
559091.1900242860,-0.0035194654,0.0024303364,-9.7937557801,-0.0002472943,0.0000196343,-0.0000540867
559091.2000242861,-0.0007373750,-0.0050326442,-9.7928669769,0.0001218311,0.0001715430,-0.0000106963
559091.2100242859,0.0015147815,0.0022984436,-9.7937977182,-0.0002907208,0.0000304849,-0.0000323915
559091.2200242860,-0.0007481696,-0.0032021129,-9.7933236691,0.0002086841,0.0000955887,-0.0000323915
559091.2300242860,-0.0012344163,0.0032023501,-9.7937744624,-0.0003015774,0.0000738874,-0.0000323915
559091.2400242860,-0.0021035878,-0.0061060990,-9.7925510271,0.0002195408,0.0000955887,-0.0000323915
559091.2500242860,0.0005947841,0.0032099229,-9.7939421970,-0.0003992871,0.0000738874,-0.0000540867
559091.2600242860,-0.0001307762,-0.0038099972,-9.7927189841,0.0002303974,0.0000630368,-0.0000323915
559091.2700242860,-0.0018390870,0.0030470444,-9.7931594182,-0.0003558606,0.0000847381,-0.0000323915
559091.2800242860,-0.0002816411,-0.0054881408,-9.7933285217,0.0002195408,0.0000847381,0.0000001513
559091.2900242860,-0.0001684567,0.0036643078,-9.7937831343,-0.0003124341,0.0000630368,-0.0000432391
559091.3000242860,-0.0005943875,-0.0028965726,-9.7930197788,0.0002195408,0.0000955887,-0.0000106963
559091.3100242860,-0.0018421763,0.0025897414,-9.7937696665,-0.0003232907,0.0000738874,-0.0000432391
559091.3200242860,-0.0018045532,-0.0054945324,-9.7930108148,0.0001544010,0.0000738874,-0.0000432391
559091.3300242861,0.0005978447,0.0033622415,-9.7934845980,-0.0003341473,0.0001389912,-0.0000323915
559091.3400242859,-0.0008994860,-0.0032028076,-9.7931698906,0.0002195408,-0.0000020669,-0.0000432391
559091.3500242860,-0.0016823877,0.0019799812,-9.7931611752,-0.0003124341,0.0001064393,-0.0000215439
559091.3600242860,-0.0016581108,-0.0054935600,-9.7937746323,0.0001978275,0.0000630368,-0.0000323915
559091.3700242860,-0.0000146746,0.0039698481,-9.7934792440,-0.0003124341,0.0000955887,-0.0000432391
559091.3800242860,0.0000162611,-0.0039615516,-9.7934828713,0.0001761142,0.0000630368,-0.0000323915
559091.3900242860,-0.0019892996,0.0018263426,-9.7934637270,-0.0002472943,0.0000630368,-0.0000432391
559091.4000242860,-0.0015018343,-0.0045781898,-9.7928604240,0.0001001178,0.0000955887,-0.0000432391
559091.4100242860,0.0005918382,0.0042775419,-9.7937891990,-0.0002038678,0.0000413356,-0.0000323915
559091.4200242860,-0.0001338655,-0.0042673002,-9.7933292324,0.0001109745,0.0000738874,-0.0000106963
559091.4300242860,-0.0013827868,0.0021340364,-9.7937736820,-0.0001930112,0.0000738874,-0.0000323915
559091.4400242870,-0.0025701449,-0.0041250554,-9.7926988238,0.0000241214,0.0000304849,-0.0000432391
559091.4500242870,0.0001359895,0.0035131009,-9.7939382513,-0.0001821545,0.0001064393,-0.0000432391
559091.4600242870,0.0000216440,-0.0050293095,-9.7933308499,0.0000241214,0.0001064393,-0.0000540867
559091.4700242870,-0.0016884229,0.0025902972,-9.7936184255,-0.0001061581,0.0000413356,-0.0000323915
559091.4800242870,-0.0021204175,-0.0036652517,-9.7934649695,-0.0000627316,0.0000413356,-0.0000215439
559091.4900242870,-0.0004621371,0.0016799990,-9.7933239744,-0.0000193051,0.0001172899,-0.0000323915
559091.5000242870,0.0001586824,-0.0013679688,-9.7934829542,-0.0001930112,0.0000955887,-0.0000323915
559091.5100242870,-0.0012146980,-0.0009160849,-9.7933188166,0.0001218311,0.0000738874,-0.0000323915
559091.5200242870,-0.0015258030,-0.0003070195,-9.7937735293,-0.0003015774,0.0000196343,-0.0000323915
559091.5300242871,-0.0001470110,-0.0015216768,-9.7936329963,0.0001869709,0.0000847381,-0.0000432391
559091.5400242870,-0.0006080419,0.0009165309,-9.7928655252,-0.0002690076,0.0000738874,-0.0000323915
559091.5500242870,-0.0012093725,-0.0025938116,-9.7934720936,0.0001761142,0.0000847381,-0.0000106963
559091.5600242870,-0.0009143589,0.0006103653,-9.7931681467,-0.0002690076,0.0000738874,-0.0000432391
559091.5700242870,-0.0010532681,-0.0035083478,-9.7934737809,0.0001761142,0.0001064393,-0.0000323915
559091.5800242870,-0.0010842897,0.0035080987,-9.7939281014,-0.0002690076,0.0000738874,-0.0000432391
559091.5900242870,-0.0005824318,-0.0053371422,-9.7927158754,0.0000458347,0.0000630368,-0.0000323915
559091.6000242870,-0.0012362584,0.0030499621,-9.7940795517,-0.0000627316,0.0000087837,-0.0000323915
559091.6100242870,-0.0006022934,-0.0027436291,-9.7939347676,-0.0001930112,0.0000847381,-0.0000432391
559091.6200242870,0.0009245036,-0.0002975706,-9.7925737511,0.0001218311,0.0000847381,-0.0000106963
559091.6300242870,-0.0016794991,0.0003023934,-9.7936194718,-0.0002907208,0.0001064393,-0.0000323915
559091.6400242870,-0.0016622179,-0.0038159028,-9.7934688455,0.0002195408,0.0000413356,-0.0000432391
559091.6500242871,-0.0012204752,0.0024390906,-9.7924022234,-0.0003015774,0.0000630368,-0.0000540867
559091.6600242869,-0.0002924930,-0.0042675783,-9.7940905124,0.0001435444,0.0000630368,-0.0000432391
559091.6700242870,-0.0000147893,0.0027499105,-9.7940898411,-0.0002038678,0.0001172899,-0.0000432391
559091.6800242870,-0.0016494379,-0.0039691241,-9.7919438176,-0.0000518750,0.0000738874,-0.0000215439
559091.6900242870,-0.0013785650,0.0016763168,-9.7934688717,0.0000458347,0.0000738874,-0.0000215439
559091.7000242870,0.0001472643,0.0003101051,-9.7940922259,-0.0002364377,0.0001064393,-0.0000432391
559091.7100242870,-0.0008964254,-0.0030504890,-9.7927122916,0.0001435444,0.0000196343,-0.0000323915
559091.7200242870,-0.0015305050,0.0015231646,-9.7934676727,-0.0002255810,0.0000738874,-0.0000540867
559091.7300242870,-0.0004461317,-0.0030481965,-9.7936311563,-0.0000084485,0.0001172899,-0.0000323915
559091.7400242870,-0.0003084123,0.0013755705,-9.7933253826,0.0000024082,0.0000304849,-0.0000432391
559091.7500242870,-0.0006033686,-0.0012186377,-9.7933240310,-0.0002364377,0.0000738874,-0.0000323915
559091.7600242870,-0.0010561279,-0.0015257756,-9.7928628350,0.0001761142,0.0000738874,-0.0000323915
559091.7700242870,-0.0018342990,0.0021318134,-9.7930073270,-0.0001930112,0.0000738874,-0.0000323915
559091.7800242871,-0.0007476033,-0.0036596242,-9.7934763881,-0.0000518750,0.0000955887,-0.0000432391
559091.7900242870,-0.0012201670,-0.0007632803,-9.7939287858,0.0000132648,0.0000413356,-0.0000323915
559091.8000242870,-0.0004603237,0.0015274027,-9.7931715344,-0.0002038678,0.0001064393,-0.0000323915
559091.8100242870,-0.0008994860,-0.0032028076,-9.7931698906,0.0000241214,0.0000738874,-0.0000215439
559091.8200242870,-0.0013744580,-0.0000013404,-9.7937746586,0.0000241214,0.0000738874,-0.0000432391
559091.8300242870,-0.0021371038,0.0003005176,-9.7936156656,-0.0001604413,0.0000630368,-0.0000432391
559091.8400242870,-0.0002929732,-0.0028951138,-9.7934798456,-0.0000084485,0.0000955887,-0.0000432391
559091.8500242870,-0.0003060040,0.0010704472,-9.7931730124,-0.0000193051,0.0000304849,-0.0000323915
559091.8600242870,-0.0015197105,-0.0003073667,-9.7930109805,-0.0001495846,0.0000955887,-0.0000323915
559091.8700242870,-0.0013577143,-0.0033571409,-9.7933186639,-0.0000084485,0.0000630368,-0.0000323915
559091.8800242870,-0.0004562166,-0.0001502545,-9.7934773212,-0.0000301617,0.0000847381,-0.0000323915
559091.8900242870,-0.0001540640,0.0012235994,-9.7931742114,-0.0001170148,0.0000738874,-0.0000215439
559091.9000242871,-0.0012153216,-0.0010685424,-9.7934713961,0.0000024082,0.0000630368,-0.0000432391
559091.9100242869,-0.0016723601,-0.0015279296,-9.7936203089,-0.0000301617,0.0000738874,-0.0000323915
559091.9200242870,-0.0012122610,-0.0009162238,-9.7930137970,-0.0001604413,0.0001064393,-0.0000323915
559091.9300242870,0.0001587111,-0.0010629844,-9.7933303049,-0.0000084485,0.0000413356,-0.0000432391
559091.9400242870,-0.0010584503,-0.0003056992,-9.7925572575,-0.0000084485,0.0000738874,-0.0000215439
559091.9500242870,-0.0019779101,-0.0001567156,-9.7930071046,-0.0001387280,0.0000738874,-0.0000323915
559091.9600242870,-0.0007492734,-0.0019821058,-9.7928655818,-0.0000193051,0.0000738874,-0.0000323915
559091.9700242870,0.0001588258,0.0001569532,-9.7927197079,-0.0000084485,0.0000630368,-0.0000540867
559091.9800242870,-0.0009168532,0.0000005354,-9.7937784648,-0.0001387280,0.0000738874,-0.0000540867
559091.9900242870,-0.0015192303,-0.0016798312,-9.7936216474,-0.0000518750,0.0000630368,-0.0000323915
559092.0000242870,-0.0007642897,0.0003061451,-9.7936270842,-0.0000193051,0.0000738874,-0.0000215439
559092.0100242870,-0.0007661318,0.0001537571,-9.7939321735,-0.0001061581,0.0000738874,-0.0000323915
559092.0200242870,-0.0013625023,-0.0024419100,-9.7934707551,-0.0000410183,0.0000847381,-0.0000323915
559092.0300242871,-0.0015239609,-0.0001546315,-9.7934684401,-0.0000301617,0.0000630368,-0.0000540867
559092.0400242870,-0.0018356035,0.0012169297,-9.7936177845,-0.0001387280,0.0000847381,-0.0000432391
559092.0500242870,0.0006144737,-0.0012134966,-9.7936392004,-0.0000301617,0.0000738874,-0.0000323915
559092.0600242870,-0.0009047829,-0.0012200965,-9.7928639643,-0.0000410183,0.0000738874,-0.0000323915
559092.0700242870,-0.0015198252,-0.0015273043,-9.7936215776,-0.0001170148,0.0000630368,-0.0000323915
559092.0800242870,-0.0024325403,-0.0009212260,-9.7930036471,-0.0000301617,0.0000738874,-0.0000323915
559092.0900242870,0.0000001696,-0.0001483093,-9.7936336372,0.0000024082,0.0000847381,-0.0000432391
559092.1000242870,0.0000049290,-0.0013685246,-9.7936341952,-0.0001061581,0.0000630368,-0.0000323915
559092.1100242870,-0.0025857848,-0.0019892620,-9.7936129057,-0.0000518750,0.0000847381,-0.0000540867
559092.1200242870,-0.0025892396,0.0001458371,-9.7930018901,-0.0000518750,0.0000738874,-0.0000323915
559092.1300242870,0.0007677756,0.0004645082,-9.7927246433,-0.0000735882,0.0000847381,-0.0000215439
559092.1400242870,-0.0004454794,-0.0025907546,-9.7933259276,-0.0000301617,0.0000630368,-0.0000323915
559092.1500242871,-0.0019767490,-0.0007667538,-9.7931598934,-0.0000193051,0.0000955887,-0.0000323915
559092.1600242869,-0.0006117261,0.0006117548,-9.7934757037,-0.0001061581,0.0000738874,-0.0000540867
559092.1700242870,0.0003106510,-0.0009098322,-9.7933315039,-0.0000410183,0.0000738874,-0.0000323915
559092.1800242870,-0.0012141891,-0.0019835650,-9.7937768341,-0.0000301617,0.0000630368,-0.0000432391
559092.1900242870,-0.0016746824,-0.0003078531,-9.7933147313,-0.0001170148,0.0000955887,-0.0000432391
559092.2000242870,-0.0007595017,-0.0006090858,-9.7934749930,-0.0000410183,0.0000738874,-0.0000323915
559092.2100242870,0.0003094899,-0.0002997939,-9.7931787151,-0.0000084485,0.0000630368,-0.0000323915
559092.2200242870,-0.0009096569,-0.0012198188,-9.7934740033,-0.0000627316,0.0000738874,-0.0000540867
559092.2300242870,-0.0006057769,-0.0009135144,-9.7934764013,-0.0000627316,0.0000738874,-0.0000215439
559092.2400242870,-0.0003024632,-0.0001496987,-9.7933260802,-0.0000410183,0.0000738874,-0.0000432391
559092.2500242870,0.0000068284,-0.0006061678,-9.7930238074,-0.0000953015,0.0000630368,-0.0000432391
559092.2600242870,-0.0018206446,-0.0016812901,-9.7931615806,-0.0000627316,0.0000847381,-0.0000540867
559092.2700242870,-0.0012140744,-0.0007636275,-9.7931662370,-0.0000410183,0.0000738874,-0.0000215439
559092.2800242871,-0.0004537509,0.0001545910,-9.7930196524,-0.0000627316,0.0000847381,-0.0000432391
559092.2900242870,-0.0007576882,-0.0007616822,-9.7933225530,-0.0000193051,0.0000413356,-0.0000323915
559092.3000242870,-0.0019779675,-0.0007666844,-9.7933124031,-0.0000410183,0.0001064393,-0.0000215439
559092.3100242870,-0.0016760156,-0.0015277212,-9.7940778382,-0.0000953015,0.0000738874,-0.0000432391
559092.3200242870,-0.0004520522,-0.0012179430,-9.7934778095,-0.0000518750,0.0000955887,-0.0000323915
559092.3300242870,-0.0003041906,0.0009178509,-9.7930205724,-0.0000627316,0.0000196343,-0.0000323915
559092.3400242870,-0.0015214953,0.0001502140,-9.7930107713,-0.0000518750,0.0000955887,-0.0000215439
559092.3500242870,-0.0012099387,-0.0021363003,-9.7933193746,-0.0000084485,0.0000630368,-0.0000323915
559092.3600242870,-0.0010615682,-0.0010679866,-9.7933201550,-0.0000627316,0.0000955887,-0.0000432391
559092.3700242870,-0.0012248690,0.0010669039,-9.7936229292,-0.0001061581,0.0000630368,-0.0000323915
559092.3800242870,-0.0002982701,-0.0009124027,-9.7931739192,-0.0000193051,0.0000955887,-0.0000323915
559092.3900242870,-0.0005973907,-0.0024389224,-9.7931720793,-0.0000627316,0.0000304849,-0.0000323915
559092.4000242871,-0.0012116374,-0.0007637663,-9.7928612175,-0.0001170148,0.0000955887,-0.0000323915
559092.4100242869,-0.0016764385,0.0004547120,-9.7931618728,-0.0000084485,0.0000304849,-0.0000432391
559092.4200242870,-0.0003024918,-0.0004546831,-9.7934787295,-0.0000193051,0.0001064393,-0.0000323915
559092.4300242870,-0.0009025179,-0.0030501418,-9.7934748404,-0.0000627316,0.0000738874,-0.0000432391
559092.4400242870,-0.0006070241,-0.0012184294,-9.7937815603,-0.0000627316,0.0000738874,-0.0000323915
559092.4500242870,-0.0015262833,0.0010654450,-9.7931628625,-0.0000735882,0.0000630368,-0.0000323915
559092.4600242870,-0.0009126601,-0.0007621686,-9.7936263038,-0.0000518750,0.0000847381,-0.0000432391
559092.4700242870,-0.0004430711,-0.0028958779,-9.7931735573,-0.0000301617,0.0000413356,-0.0000323915
559092.4800242870,-0.0016692708,-0.0010706266,-9.7930100606,-0.0001061581,0.0000738874,-0.0000432391
559092.4900242870,-0.0010657040,0.0003046862,-9.7931670175,-0.0000410183,0.0000738874,-0.0000215439
559092.5000242870,0.0006096857,-0.0002982656,-9.7937912917,-0.0000084485,0.0000955887,-0.0000323915
559092.5100242880,-0.0004515146,-0.0019804387,-9.7937831778,-0.0000735882,0.0000630368,-0.0000432391
559092.5200242880,-0.0010585936,-0.0018306212,-9.7933205038,-0.0001061581,0.0000738874,-0.0000432391
559092.5300242880,-0.0013774325,0.0007612942,-9.7937743098,-0.0000410183,0.0000630368,-0.0000215439
559092.5400242880,-0.0009167959,0.0006105042,-9.7934731662,-0.0000627316,0.0000738874,-0.0000432391
559092.5500242880,-0.0002972523,-0.0030473629,-9.7940899544,-0.0000410183,0.0000738874,-0.0000215439
559092.5600242880,-0.0010628154,-0.0013729015,-9.7936253141,-0.0000410183,0.0000738874,-0.0000323915
559092.5700242880,-0.0007678018,0.0018312754,-9.7933213672,-0.0001061581,0.0000738874,-0.0000323915
559092.5800242880,-0.0012085482,-0.0003064633,-9.7922509692,-0.0000301617,0.0000738874,-0.0000432391
559092.5900242880,-0.0019708285,-0.0025970074,-9.7933132402,-0.0000410183,0.0000738874,-0.0000215439
559092.6000242881,-0.0006138262,-0.0022854928,-9.7951546364,-0.0001061581,0.0000738874,-0.0000215439
559092.6100242879,-0.0013829015,0.0009140989,-9.7943842790,-0.0000627316,0.0000738874,-0.0000215439
559092.6200242880,0.0001443470,0.0016827085,-9.7937865786,0.0000024082,0.0000738874,-0.0000432391
559092.6300242880,0.0001670686,-0.0028933768,-9.7931786323,-0.0000518750,0.0000738874,-0.0000432391
559092.6400242880,-0.0007506066,-0.0032019740,-9.7936286886,-0.0000735882,0.0000738874,-0.0000540867
559092.6500242880,-0.0030557394,0.0027368494,-9.7928443883,-0.0000735882,0.0000738874,-0.0000215439
559092.6600242880,0.0007648296,0.0015321271,-9.7925716452,-0.0000301617,0.0000847381,-0.0000432391
559092.6700242880,0.0006240210,-0.0033489429,-9.7934876673,-0.0000301617,0.0000304849,-0.0000215439
559092.6800242880,-0.0019714234,-0.0024444805,-9.7933131704,-0.0001061581,0.0000847381,-0.0000323915
559092.6900242880,-0.0021381790,0.0018255090,-9.7930049290,-0.0000518750,0.0001389912,-0.0000540867
559092.7000242880,0.0004517105,0.0001588982,-9.7942473429,0.0000132648,0.0000304849,-0.0000432391
559092.7100242880,0.0007747425,-0.0031957212,-9.7936413760,-0.0000627316,0.0000304849,-0.0000323915
559092.7200242880,-0.0021239583,-0.0024451058,-9.7933119017,-0.0001170148,0.0000738874,-0.0000432391
559092.7300242879,-0.0027495945,0.0012131086,-9.7934576624,-0.0000735882,0.0001064393,-0.0000323915
559092.7400242880,0.0009142466,0.0007704650,-9.7933358116,-0.0000193051,0.0000847381,-0.0000432391
559092.7500242880,0.0018449526,-0.0028864988,-9.7931925884,-0.0000410183,0.0000630368,-0.0000215439
559092.7600242880,-0.0031984188,-0.0026015930,-9.7942181488,-0.0000735882,0.0000196343,-0.0000323915
559092.7700242880,-0.0019826408,0.0013684841,-9.7928538973,-0.0000953015,0.0001064393,-0.0000432391
559092.7800242880,0.0015303927,-0.0001423342,-9.7930362855,-0.0000410183,0.0001281405,-0.0000432391
559092.7900242880,0.0003105937,-0.0015198010,-9.7936368025,-0.0000518750,0.0000304849,-0.0000323915
559092.8000242880,-0.0018224580,-0.0015286937,-9.7933140206,-0.0000953015,0.0000196343,-0.0000323915
559092.8100242880,-0.0039633010,-0.0001647053,-9.7932956305,-0.0000410183,0.0001064393,-0.0000323915
559092.8200242880,-0.0003066563,0.0006130053,-9.7934782412,-0.0000301617,0.0000955887,-0.0000323915
559092.8300242880,0.0015290595,-0.0013622024,-9.7937993924,-0.0000735882,0.0000196343,-0.0000432391
559092.8400242880,0.0007724202,-0.0019756448,-9.7933357984,-0.0000518750,0.0000847381,-0.0000540867
559092.8500242881,-0.0031988130,-0.0003141753,-9.7931495342,-0.0000735882,0.0000847381,-0.0000323915
559092.8600242879,-0.0025923576,-0.0006164503,-9.7937647877,-0.0000627316,0.0000413356,-0.0000432391
559092.8700242880,0.0001582022,0.0000044957,-9.7928722874,-0.0000301617,0.0000738874,-0.0000215439
559092.8800242880,0.0007713164,-0.0007556377,-9.7928777111,-0.0000410183,0.0000847381,-0.0000323915
559092.8900242880,-0.0002976752,-0.0010649296,-9.7931739890,-0.0000410183,0.0000413356,-0.0000323915
559092.9000242880,-0.0018291741,-0.0016808040,-9.7942291489,-0.0000410183,0.0000738874,-0.0000323915
559092.9100242880,-0.0012218657,0.0006092537,-9.7934706288,-0.0000735882,0.0000847381,-0.0000540867
559092.9200242880,0.0016804046,-0.0010565233,-9.7938005216,-0.0000518750,0.0000847381,-0.0000432391
559092.9300242880,-0.0012135942,-0.0021360920,-9.7937769039,-0.0000518750,0.0000196343,-0.0000215439
559092.9400242880,-0.0030492527,0.0004490846,-9.7931504541,-0.0000627316,0.0000847381,-0.0000323915
559092.9500242880,-0.0004525611,-0.0001504628,-9.7930197919,-0.0000410183,0.0000738874,-0.0000432391
559092.9600242880,-0.0006033972,-0.0015236221,-9.7934766803,-0.0000193051,0.0001172899,-0.0000323915
559092.9700242880,-0.0004495578,-0.0006081130,-9.7928674915,-0.0000953015,0.0000738874,-0.0000323915
559092.9800242879,-0.0013666380,-0.0010692371,-9.7933176176,-0.0000953015,0.0000738874,-0.0000540867
559092.9900242880,-0.0027442689,-0.0004646181,-9.7936109394,-0.0000410183,0.0000738874,-0.0000432391
559093.0000242880,-0.0001463301,-0.0007592505,-9.7931751182,-0.0000410183,0.0000738874,-0.0000432391
559093.0100242880,0.0003069955,-0.0009096239,-9.7937890332,-0.0000627316,0.0000738874,-0.0000215439
559093.0200242880,-0.0010610020,-0.0015254979,-9.7934728741,-0.0000410183,0.0000413356,-0.0000215439
559093.0300242880,-0.0021316349,0.0001477129,-9.7930056963,-0.0000518750,0.0001064393,-0.0000323915
559093.0400242880,-0.0007583118,-0.0009141397,-9.7934751325,-0.0000410183,0.0000738874,-0.0000323915
559093.0500242880,0.0003130307,-0.0015199398,-9.7933317830,-0.0000518750,0.0000738874,-0.0000323915
559093.0600242880,-0.0007594730,-0.0003041014,-9.7933223437,-0.0000953015,0.0000630368,-0.0000432391
559093.0700242880,-0.0016753634,-0.0010702794,-9.7937726094,-0.0000410183,0.0000738874,-0.0000323915
559093.0800242880,-0.0012171064,-0.0006109617,-9.7934711868,-0.0000084485,0.0000847381,-0.0000323915
559093.0900242880,0.0013766107,-0.0004478745,-9.7933401758,-0.0000627316,0.0000738874,-0.0000323915
559093.1000242881,-0.0018236192,-0.0009186555,-9.7931612318,-0.0000518750,0.0000630368,-0.0000432391
559093.1100242879,-0.0027436740,-0.0006171450,-9.7936110092,-0.0000518750,0.0000955887,-0.0000432391
559093.1200242880,0.0001611481,-0.0010631232,-9.7930252854,-0.0000735882,0.0000738874,-0.0000432391
559093.1300242880,0.0010751677,-0.0007543177,-9.7930327583,-0.0000301617,0.0000630368,-0.0000323915
559093.1400242880,-0.0013672043,-0.0006117258,-9.7931648985,-0.0000410183,0.0000738874,-0.0000215439
559093.1500242880,-0.0024434495,-0.0003106323,-9.7940709364,-0.0000410183,0.0000738874,-0.0000323915
559093.1600242880,-0.0013659858,-0.0006117953,-9.7930123888,-0.0000193051,0.0000955887,-0.0000323915
559093.1700242880,0.0004631573,-0.0012141913,-9.7934854219,-0.0000735882,0.0000630368,-0.0000323915
559093.1800242880,-0.0012177300,-0.0007634191,-9.7936237663,-0.0000627316,0.0000847381,-0.0000432391
559093.1900242880,-0.0022872591,-0.0003102153,-9.7936146759,-0.0000518750,0.0000738874,-0.0000323915
559093.2000242880,-0.0006051246,-0.0004560725,-9.7931711725,-0.0000518750,0.0000847381,-0.0000323915
559093.2100242880,-0.0007564984,-0.0010667360,-9.7933226925,-0.0000410183,0.0000630368,-0.0000323915
559093.2200242880,-0.0010609446,-0.0009155291,-9.7931675755,-0.0000301617,0.0000738874,-0.0000215439
559093.2300242879,-0.0021347242,-0.0003095901,-9.7936159446,-0.0000953015,0.0000738874,-0.0000323915
559093.2400242880,-0.0007583118,-0.0009141397,-9.7934751325,0.0000024082,0.0000738874,-0.0000215439
559093.2500242880,-0.0006033399,-0.0009136533,-9.7931713817,-0.0001821545,0.0000738874,-0.0000432391
559093.2600242880,-0.0016764672,0.0001497276,-9.7933145221,0.0000132648,0.0000630368,-0.0000323915
559093.2700242880,-0.0013672616,-0.0012216946,-9.7934701971,-0.0001278714,0.0000738874,-0.0000215439
559093.2800242880,-0.0009197991,0.0010681544,-9.7936254667,0.0000132648,0.0000738874,-0.0000323915
559093.2900242880,0.0003189799,-0.0030452090,-9.7933324805,-0.0001387280,0.0000738874,-0.0000432391
559093.3000242880,-0.0007744319,0.0025941183,-9.7937785476,0.0000132648,0.0000738874,-0.0000432391
559093.3100242880,-0.0021191416,-0.0030553523,-9.7930071612,-0.0001495846,0.0000738874,-0.0000323915
559093.3200242880,-0.0021401071,0.0007581678,-9.7937679661,0.0000349781,0.0000847381,-0.0000215439
559093.3300242880,0.0000187554,-0.0033517217,-9.7928725533,-0.0001821545,0.0000630368,-0.0000215439
559093.3400242880,-0.0004663875,0.0018327343,-9.7937814339,0.0000458347,0.0000413356,-0.0000323915
559093.3500242881,-0.0019677392,-0.0021397044,-9.7927029919,-0.0001495846,0.0000955887,-0.0000323915
559093.3600242879,-0.0006117261,0.0006117548,-9.7934757037,0.0000675479,0.0000738874,-0.0000432391
559093.3700242880,0.0006288951,-0.0033492206,-9.7928776282,-0.0001821545,0.0000738874,-0.0000432391
559093.3800242880,-0.0013864710,0.0018292604,-9.7943838605,0.0000132648,0.0000738874,-0.0000323915
559093.3900242880,-0.0012045271,-0.0028990737,-9.7930147039,-0.0001495846,0.0000847381,-0.0000323915
559093.4000242880,-0.0006147867,0.0004594362,-9.7939333027,0.0000458347,0.0000738874,-0.0000323915
559093.4100242880,0.0001731324,-0.0031987084,-9.7925687327,-0.0001604413,0.0000847381,-0.0000323915
559093.4200242880,-0.0016830686,0.0012175549,-9.7936190533,0.0000675479,0.0000738874,-0.0000323915
559093.4300242880,-0.0018236765,-0.0015286243,-9.7934665304,-0.0002038678,0.0000738874,-0.0000432391
559093.4400242880,-0.0013744866,-0.0003063248,-9.7939273078,0.0001001178,0.0000847381,-0.0000323915
559093.4500242880,-0.0006021787,-0.0015236915,-9.7933241705,-0.0002472943,0.0000738874,-0.0000432391
559093.4600242880,-0.0007571220,-0.0012191935,-9.7934752720,0.0001218311,0.0000738874,0.0000001513
559093.4700242880,-0.0006166288,0.0003070481,-9.7942383920,-0.0003015774,0.0000738874,-0.0000323915
559093.4800242879,-0.0016674574,-0.0012232229,-9.7928576206,0.0002195408,0.0000738874,-0.0000323915
559093.4900242880,-0.0001547163,0.0007661575,-9.7934794402,-0.0002907208,0.0000847381,-0.0000540867
559093.5000242880,-0.0002898552,-0.0021328264,-9.7927169480,0.0001435444,0.0000630368,-0.0000432391
559093.5100242880,-0.0018338474,0.0004543645,-9.7937706431,-0.0002907208,0.0001064393,-0.0000323915
559093.5200242880,-0.0010536909,-0.0015259145,-9.7925578155,0.0001435444,0.0000413356,-0.0000106963
559093.5300242880,-0.0006117547,0.0003067704,-9.7936283530,-0.0003015774,0.0000955887,-0.0000432391
559093.5400242880,-0.0009012707,-0.0027452268,-9.7931696813,0.0001761142,0.0000304849,-0.0000323915
559093.5500242880,-0.0006141057,0.0012218624,-9.7934754247,-0.0003015774,0.0000847381,-0.0000432391
559093.5600242880,-0.0021275852,-0.0021399131,-9.7936167817,0.0002195408,0.0000630368,-0.0000540867
559093.5700242880,-0.0006056622,0.0003064232,-9.7928658042,-0.0003015774,0.0001172899,-0.0000323915
559093.5800242890,-0.0007469224,-0.0028971979,-9.7930185101,0.0001218311,0.0000413356,-0.0000323915
559093.5900242890,-0.0024360811,0.0002989199,-9.7928505793,-0.0002907208,0.0000847381,-0.0000323915
559093.6000242890,-0.0015203628,-0.0007648086,-9.7933162093,0.0000892612,0.0000738874,-0.0000215439
559093.6100242890,-0.0006022361,-0.0021336603,-9.7936294691,-0.0001387280,0.0000413356,-0.0000215439
559093.6200242890,-0.0004646028,0.0013751535,-9.7937816432,-0.0000084485,0.0000847381,-0.0000432391
559093.6300242890,-0.0005919791,-0.0032016959,-9.7928674086,-0.0001061581,0.0000738874,-0.0000323915
559093.6400242890,-0.0018434235,0.0022848264,-9.7940748255,-0.0000301617,0.0000630368,-0.0000323915
559093.6500242890,-0.0012003627,-0.0039667622,-9.7930151922,-0.0001278714,0.0000847381,-0.0000323915
559093.6600242890,0.0004512016,0.0012263783,-9.7937893254,-0.0000084485,0.0001281405,-0.0000432391
559093.6700242891,-0.0018140432,-0.0027491174,-9.7928570494,-0.0001495846,0.0000304849,-0.0000323915
559093.6800242889,-0.0013828441,0.0015240676,-9.7940789805,0.0000675479,0.0000196343,-0.0000215439
559093.6900242890,0.0006228885,-0.0024339202,-9.7931822292,-0.0001930112,0.0000847381,-0.0000323915
559093.7000242890,-0.0004568115,0.0000022724,-9.7934772515,0.0001218311,0.0001172899,-0.0000323915
559093.7100242890,-0.0012158592,-0.0003060467,-9.7931660278,-0.0003232907,0.0000847381,-0.0000432391
559093.7200242890,-0.0010610593,-0.0021354667,-9.7937781726,0.0001761142,0.0000196343,-0.0000432391
559093.7300242890,-0.0004664162,0.0015277499,-9.7939340832,-0.0003341473,0.0000738874,-0.0000323915
559093.7400242890,-0.0004412863,-0.0033534587,-9.7931737666,0.0002303974,0.0000847381,-0.0000432391
559093.7500242890,-0.0004645741,0.0016801379,-9.7936289939,-0.0003232907,0.0001389912,-0.0000323915
559093.7600242890,-0.0002869093,-0.0032004453,-9.7928699461,0.0002086841,0.0000196343,-0.0000432391
559093.7700242890,-0.0001588807,0.0018338459,-9.7934789519,-0.0003558606,0.0000630368,-0.0000432391
559093.7800242890,-0.0005950111,-0.0030490301,-9.7931723583,0.0002303974,0.0000847381,-0.0000323915
559093.7900242890,-0.0004705806,0.0025954383,-9.7939335949,-0.0003775739,0.0001606924,-0.0000323915
559093.8000242891,-0.0014969316,-0.0042734832,-9.7920977357,0.0002195408,0.0000304849,-0.0000432391
559093.8100242889,0.0001365558,0.0030555896,-9.7940909703,-0.0003232907,0.0000630368,-0.0000215439
559093.8200242890,-0.0001296437,-0.0047250198,-9.7930244221,0.0001869709,0.0000413356,-0.0000323915
559093.8300242890,-0.0026011666,0.0028913911,-9.7931531443,-0.0002907208,0.0001498418,-0.0000323915
559093.8400242890,-0.0010454481,-0.0045762446,-9.7930167399,0.0001435444,0.0001172899,-0.0000432391
559093.8500242890,-0.0000123236,0.0030547560,-9.7936321723,-0.0003015774,0.0000196343,-0.0000323915
559093.8600242890,-0.0007507499,-0.0047268960,-9.7943919350,0.0001544010,0.0000304849,-0.0000323915
559093.8700242890,-0.0001660484,0.0033591846,-9.7936307641,-0.0002255810,0.0001389912,-0.0000215439
559093.8800242890,-0.0019515904,-0.0053429780,-9.7922469275,0.0000675479,0.0000847381,-0.0000323915
559093.8900242890,-0.0009250674,0.0033558499,-9.7931668911,-0.0000953015,0.0000413356,-0.0000215439
559093.9000242890,-0.0002900273,-0.0039627327,-9.7936328436,-0.0000301617,0.0000196343,-0.0000432391
559093.9100242890,-0.0025879924,0.0004507521,-9.7926967311,-0.0000518750,0.0001064393,-0.0000323915
559093.9200242891,-0.0005919505,-0.0028967115,-9.7927147593,-0.0000735882,0.0001064393,-0.0000432391
559093.9300242889,-0.0012394337,0.0016777059,-9.7951477478,0.0000024082,0.0000738874,-0.0000215439
559093.9400242890,-0.0010652811,-0.0016777471,-9.7940829829,-0.0001495846,0.0000738874,-0.0000323915
559093.9500242890,-0.0003006784,-0.0006072794,-9.7933262895,0.0001001178,0.0000413356,-0.0000323915
559093.9600242890,0.0006102519,-0.0007557769,-9.7939440107,-0.0002472943,0.0000630368,-0.0000215439
559093.9700242890,-0.0004628754,0.0003076040,-9.7940871510,0.0001326877,0.0000738874,-0.0000323915
559093.9800242890,-0.0015197105,-0.0003073667,-9.7930109805,-0.0002907208,0.0001064393,-0.0000540867
559093.9900242890,-0.0004430137,-0.0022859091,-9.7928682588,0.0001218311,0.0000955887,-0.0000432391
559094.0000242890,-0.0016788468,0.0007598353,-9.7933142430,-0.0003124341,0.0000413356,-0.0000432391
559094.0100242890,-0.0006052680,-0.0019809945,-9.7939344188,0.0001978275,0.0000196343,0.0000001513
559094.0200242890,-0.0013828155,0.0018290520,-9.7939263312,-0.0003124341,0.0000738874,-0.0000323915
559094.0300242890,-0.0007415395,-0.0039649558,-9.7928664886,0.0001869709,0.0001172899,-0.0000432391
559094.0400242890,-0.0000020667,0.0019867204,-9.7928701118,-0.0003341473,0.0000847381,-0.0000540867
559094.0500242891,-0.0021197939,-0.0035127942,-9.7933123900,0.0001544010,0.0000304849,-0.0000432391
559094.0600242889,-0.0000099439,0.0024446483,-9.7936324513,-0.0002798642,0.0000413356,-0.0000323915
559094.0700242890,0.0003358669,-0.0048760875,-9.7921132395,0.0001544010,0.0001606924,-0.0000323915
559094.0800242890,-0.0004693334,0.0029003532,-9.7936284359,-0.0002798642,0.0000630368,-0.0000323915
559094.0900242890,-0.0018111259,-0.0041217207,-9.7931626967,0.0001435444,-0.0000020669,-0.0000432391
559094.1000242890,-0.0004728169,0.0047304679,-9.7931700695,-0.0002147244,0.0001064393,-0.0000432391
559094.1100242890,-0.0005818656,-0.0057946535,-9.7928685944,0.0000458347,0.0001281405,-0.0000432391
559094.1200242890,-0.0010771221,0.0019827601,-9.7937762892,-0.0001604413,0.0000630368,-0.0000215439
559094.1300242890,-0.0013619074,-0.0025944369,-9.7934708249,-0.0000410183,0.0000196343,-0.0000323915
559094.1400242890,-0.0000081879,0.0016820832,-9.7937853099,0.0000132648,0.0000847381,-0.0000323915
559094.1500242890,-0.0002851246,-0.0036580261,-9.7928701553,-0.0001495846,0.0001172899,-0.0000323915
559094.1600242890,-0.0019828702,-0.0010713911,-9.7940750914,0.0001218311,0.0000304849,-0.0000432391
559094.1700242891,-0.0006141057,0.0012218624,-9.7934754247,-0.0003341473,0.0000738874,-0.0000432391
559094.1800242889,0.0013825885,-0.0016681593,-9.7931882241,0.0002086841,0.0001172899,-0.0000323915
559094.1900242890,-0.0013677132,0.0004557543,-9.7927068810,-0.0003558606,0.0000955887,-0.0000106963
559094.2000242890,-0.0027293673,-0.0039728066,-9.7934600341,0.0001435444,-0.0000237682,-0.0000106963
559094.2100242890,-0.0013875175,0.0036592362,-9.7936204746,-0.0002472943,0.0001172899,-0.0000432391
559094.2200242890,-0.0004225572,-0.0050319491,-9.7916494363,0.0001001178,0.0001064393,-0.0000540867
559094.2300242890,-0.0018440757,0.0018273845,-9.7943800543,-0.0000627316,0.0000087837,-0.0000323915
559094.2400242890,-0.0007421344,-0.0038124288,-9.7928664189,-0.0001387280,0.0001064393,-0.0000432391
559094.2500242890,0.0001576072,0.0001570227,-9.7928722176,0.0001218311,0.0001281405,-0.0000323915
559094.2600242890,0.0001478879,0.0004625626,-9.7939396464,-0.0003015774,0.0000304849,-0.0000323915
559094.2700242890,-0.0007475173,-0.0027446710,-9.7930184403,0.0001869709,0.0000630368,-0.0000106963
559094.2800242890,-0.0013737197,0.0013710547,-9.7930114820,-0.0003232907,0.0000847381,-0.0000432391
559094.2900242890,-0.0012087775,-0.0027463385,-9.7934721634,0.0001761142,0.0000630368,-0.0000432391
559094.3000242891,-0.0003222388,0.0033587676,-9.7940870246,-0.0002472943,0.0000955887,-0.0000540867
559094.3100242889,-0.0001224187,-0.0056403896,-9.7925673114,0.0001001178,0.0000413356,-0.0000323915
559094.3200242890,-0.0020036636,0.0045720354,-9.7939200007,-0.0002147244,0.0000847381,-0.0000432391
559094.3300242890,-0.0010399792,-0.0047290492,-9.7924067707,0.0000132648,0.0000847381,-0.0000215439
559094.3400242890,0.0004548285,0.0009211855,-9.7934844453,0.0000458347,0.0000413356,-0.0000323915
559094.3500242890,-0.0010658186,-0.0009152513,-9.7937776146,-0.0002364377,0.0000955887,-0.0000432391
559094.3600242890,-0.0010495265,-0.0025936029,-9.7925583038,0.0001326877,0.0000304849,-0.0000432391
559094.3700242890,-0.0001552252,0.0018336376,-9.7930214226,-0.0002690076,0.0001172899,-0.0000432391
559094.3800242890,-0.0006064865,-0.0019809251,-9.7940869286,0.0000241214,0.0000738874,-0.0000323915
559094.3900242890,-0.0004574351,-0.0001501851,-9.7936298310,-0.0000410183,0.0000847381,-0.0000215439
559094.4000242890,0.0000122113,-0.0016739256,-9.7928717860,-0.0001278714,0.0000196343,-0.0000432391
559094.4100242890,-0.0015215813,-0.0007647391,-9.7934687191,0.0000349781,0.0000738874,-0.0000323915
559094.4200242891,-0.0022847074,0.0009095834,-9.7926990593,-0.0000410183,0.0000847381,-0.0000432391
559094.4300242889,-0.0006028310,-0.0019811334,-9.7936293993,-0.0001170148,0.0000738874,-0.0000540867
559094.4400242890,-0.0013618500,-0.0019844681,-9.7931655264,-0.0000301617,0.0000738874,-0.0000323915
559094.4500242890,-0.0015256310,0.0015228869,-9.7928576337,-0.0000953015,0.0000738874,-0.0000323915
559094.4600242890,-0.0015258030,-0.0003070195,-9.7937735293,-0.0001061581,0.0000738874,-0.0000323915
559094.4700242890,-0.0010568089,-0.0022882019,-9.7933207131,0.0000024082,0.0000955887,-0.0000215439
559094.4800242890,-0.0010742335,0.0003051723,-9.7942345858,-0.0000953015,0.0000304849,-0.0000432391
559094.4900242890,-0.0013683941,-0.0003066720,-9.7931647590,-0.0000735882,0.0000847381,-0.0000323915
559094.5000242890,-0.0009090046,-0.0007623769,-9.7931687745,0.0000132648,0.0000738874,-0.0000432391
559094.5100242890,0.0003137403,-0.0004525292,-9.7927212556,-0.0000953015,0.0000738874,-0.0000432391
559094.5200242890,-0.0009006471,-0.0025927694,-9.7930171018,-0.0001061581,0.0000738874,-0.0000215439
559094.5300242890,-0.0019834078,-0.0003088953,-9.7937697231,-0.0000193051,0.0000847381,-0.0000323915
559094.5400242890,-0.0001534691,0.0010710725,-9.7931742811,-0.0000627316,0.0000738874,-0.0000323915
559094.5500242891,-0.0001367254,-0.0022847280,-9.7927182865,-0.0000518750,0.0000847381,-0.0000432391
559094.5600242889,-0.0001409472,-0.0018270084,-9.7930230967,-0.0000193051,0.0000738874,-0.0000432391
559094.5700242890,-0.0012182102,0.0006090454,-9.7930130995,-0.0001170148,0.0000738874,-0.0000432391
559094.5800242890,-0.0018217771,-0.0007662674,-9.7928561426,-0.0000627316,0.0000847381,-0.0000323915
559094.5900242890,-0.0001415994,-0.0022844503,-9.7933283255,-0.0000301617,0.0000738874,-0.0000215439
559094.6000242890,-0.0010609159,-0.0006105447,-9.7930149263,-0.0001061581,0.0000738874,-0.0000215439
559094.6100242890,-0.0007570073,0.0000007441,-9.7928646750,-0.0000627316,0.0000847381,-0.0000323915
559094.6200242890,-0.0012164828,-0.0004585042,-9.7933186073,0.0000132648,0.0000630368,-0.0000323915
559094.6300242890,-0.0001469823,-0.0012166924,-9.7934803470,-0.0000735882,0.0000847381,-0.0000323915
559094.6400242890,-0.0009024605,-0.0024401730,-9.7931695418,-0.0001061581,0.0000630368,-0.0000323915
559094.6500242890,-0.0015251508,0.0001504224,-9.7934683005,-0.0000518750,0.0000738874,-0.0000323915
559094.6600242900,-0.0012224893,0.0004567962,-9.7936232083,-0.0000518750,0.0000738874,-0.0000215439
559094.6700242900,0.0000091507,-0.0018262442,-9.7933293850,-0.0000735882,0.0000847381,-0.0000215439
559094.6800242900,-0.0004508623,-0.0015229968,-9.7934779490,-0.0000193051,0.0000304849,-0.0000323915
559094.6900242900,-0.0010674600,0.0010672514,-9.7930141589,-0.0000627316,0.0000955887,-0.0000540867
559094.7000242900,-0.0001523939,-0.0004539189,-9.7937850177,-0.0000627316,0.0000413356,-0.0000432391
559094.7100242900,0.0000103119,-0.0024362825,-9.7934821738,-0.0000301617,0.0000955887,-0.0000432391
559094.7200242900,-0.0016698371,-0.0006131153,-9.7928573416,-0.0001170148,0.0000630368,-0.0000432391
559094.7300242900,-0.0009137926,0.0001528540,-9.7933208657,-0.0000735882,0.0001064393,-0.0000215439
559094.7400242900,-0.0012153503,-0.0013735268,-9.7936240453,0.0000024082,0.0000630368,-0.0000323915
559094.7500242901,-0.0004496152,-0.0012180818,-9.7931727900,-0.0000627316,0.0000955887,-0.0000432391
559094.7600242899,-0.0010604071,-0.0016780248,-9.7934729438,-0.0000627316,0.0000738874,-0.0000432391
559094.7700242900,-0.0012207332,-0.0003057690,-9.7937760668,-0.0000301617,0.0000847381,-0.0000323915
559094.7800242900,-0.0019803185,0.0001484077,-9.7931594748,-0.0000735882,0.0000630368,-0.0000432391
559094.7900242900,-0.0009096856,-0.0015248032,-9.7936266526,-0.0000735882,0.0000847381,-0.0000215439
559094.8000242900,-0.0009071912,-0.0009149733,-9.7930163345,-0.0000193051,0.0000738874,-0.0000323915
559094.8100242900,-0.0013694979,0.0009133350,-9.7927066717,-0.0000627316,0.0000738874,-0.0000323915
559094.8200242900,-0.0009132551,-0.0006096417,-9.7936262340,-0.0000301617,0.0000955887,-0.0000323915
559094.8300242900,-0.0007571507,-0.0015241779,-9.7936279213,-0.0000301617,0.0000738874,-0.0000432391
559094.8400242900,-0.0013689603,0.0001508393,-9.7930120400,-0.0001170148,0.0000738874,-0.0000323915
559094.8500242900,-0.0019804045,-0.0007665455,-9.7936174226,-0.0000627316,0.0000738874,-0.0000323915
559094.8600242900,-0.0010634103,-0.0012203746,-9.7936252443,-0.0000301617,0.0000847381,0.0000001513
559094.8700242901,0.0013765533,-0.0010578433,-9.7936454744,-0.0000735882,0.0000738874,-0.0000432391
559094.8800242899,-0.0004556503,-0.0006077658,-9.7936300402,-0.0000518750,0.0000738874,-0.0000323915
559094.8900242900,-0.0016734639,-0.0003079225,-9.7931622216,-0.0000193051,0.0000738874,-0.0000432391
559094.9000242900,-0.0016734926,-0.0006129069,-9.7933148708,-0.0000953015,0.0000738874,-0.0000323915
559094.9100242900,-0.0015204201,-0.0013747774,-9.7936215079,-0.0000627316,0.0000847381,-0.0000432391
559094.9200242900,-0.0010639766,-0.0007628633,-9.7934725253,-0.0000627316,0.0000738874,-0.0000323915
559094.9300242900,-0.0015215526,-0.0004597547,-9.7933160698,-0.0000627316,0.0000738874,0.0000001513
559094.9400242900,-0.0018279269,-0.0013758890,-9.7939239899,-0.0000410183,0.0000738874,-0.0000323915
559094.9500242900,-0.0015179544,-0.0010699318,-9.7931638391,-0.0000518750,0.0000847381,-0.0000540867
559094.9600242900,0.0003082714,-0.0002997245,-9.7933312249,-0.0000518750,0.0000738874,-0.0000323915
559094.9700242900,-0.0010663562,-0.0001527556,-9.7934722463,-0.0000627316,0.0000738874,-0.0000215439
559094.9800242900,-0.0006081566,-0.0003034067,-9.7934761222,-0.0000627316,0.0000738874,-0.0000432391
559094.9900242900,-0.0007577456,-0.0013716510,-9.7936278516,-0.0000735882,0.0000738874,-0.0000215439
559095.0000242901,0.0001575212,-0.0007579305,-9.7933301654,-0.0000301617,0.0000738874,-0.0000432391
559095.0100242899,-0.0009119505,0.0003052421,-9.7930157765,-0.0000410183,0.0000738874,-0.0000432391
559095.0200242900,-0.0018248377,-0.0009185860,-9.7933137416,-0.0000410183,0.0000413356,-0.0000432391
559095.0300242900,0.0000134298,-0.0016739951,-9.7927192762,-0.0000518750,0.0001064393,-0.0000540867
559095.0400242900,-0.0004610619,0.0001550076,-9.7939347110,-0.0001061581,0.0000738874,-0.0000323915
559095.0500242900,-0.0006045011,-0.0003036150,-9.7930185930,-0.0000627316,0.0000738874,-0.0000323915
559095.0600242900,-0.0024325976,-0.0015311948,-9.7933089457,-0.0000518750,0.0000630368,-0.0000323915
559095.0700242900,0.0007615970,-0.0004500978,-9.7939451399,-0.0000518750,0.0000847381,-0.0000323915
559095.0800242900,0.0001544893,-0.0006052647,-9.7936351152,-0.0000627316,0.0000738874,-0.0000323915
559095.0900242900,-0.0012200810,0.0001516729,-9.7934708380,-0.0000193051,0.0000738874,-0.0000323915
559095.1000242900,-0.0010597261,-0.0009155985,-9.7930150658,-0.0000627316,0.0000847381,-0.0000323915
559095.1100242900,0.0003160626,-0.0016726056,-9.7930268332,-0.0000735882,0.0000738874,-0.0000323915
559095.1200242901,-0.0013720210,-0.0000014793,-9.7934696390,-0.0000410183,0.0000738874,-0.0000323915
559095.1300242899,0.0000044201,-0.0003010445,-9.7931761777,-0.0000410183,0.0000738874,-0.0000432391
559095.1400242900,-0.0021299935,-0.0018347898,-9.7937691519,-0.0000518750,0.0000955887,-0.0000432391
559095.1500242900,-0.0001470110,-0.0015216768,-9.7936329963,-0.0000627316,0.0000413356,-0.0000323915
559095.1600242900,-0.0001523366,0.0001560499,-9.7934797192,-0.0000301617,0.0000955887,-0.0000215439
559095.1700242900,-0.0027490569,0.0004506129,-9.7937630307,-0.0000735882,0.0000413356,-0.0000432391
559095.1800242900,-0.0010604071,-0.0016780248,-9.7934729438,-0.0000518750,0.0000847381,-0.0000215439
559095.1900242900,-0.0001469823,-0.0012166924,-9.7934803470,-0.0000735882,0.0000738874,-0.0000432391
559095.2000242900,0.0004638669,-0.0001467806,-9.7928748946,-0.0000627316,0.0000847381,0.0000001513
559095.2100242900,-0.0022830373,-0.0007679350,-9.7933098656,-0.0000410183,0.0000413356,-0.0000323915
559095.2200242900,-0.0013684515,-0.0009166408,-9.7934700576,-0.0000410183,0.0001064393,-0.0000540867
559095.2300242900,0.0001605245,-0.0012155807,-9.7931778649,-0.0000953015,0.0000738874,-0.0000323915
559095.2400242900,0.0000025780,-0.0004534325,-9.7934812669,-0.0000410183,0.0000738874,-0.0000215439
559095.2500242901,-0.0007612577,0.0001534793,-9.7933221345,-0.0000627316,0.0000413356,-0.0000323915
559095.2600242899,-0.0025881932,-0.0016841387,-9.7937652760,-0.0000735882,0.0000955887,-0.0000215439
559095.2700242900,0.0001604958,-0.0015205651,-9.7933305142,-0.0000410183,0.0000738874,-0.0000323915
559095.2800242900,-0.0003073085,0.0001555635,-9.7937834700,-0.0000518750,0.0000847381,-0.0000215439
559095.2900242900,-0.0022811952,-0.0006155469,-9.7930047764,-0.0000518750,0.0000630368,-0.0000432391
559095.3000242900,-0.0019731508,-0.0013769310,-9.7930076626,-0.0000410183,0.0000847381,-0.0000323915
559095.3100242900,0.0010660432,-0.0006013048,-9.7941002569,-0.0000735882,0.0000630368,-0.0000215439
559095.3200242900,-0.0002982701,-0.0009124027,-9.7931739192,-0.0001061581,0.0000738874,-0.0000432391
559095.3300242900,-0.0018266798,-0.0010709741,-9.7936188309,-0.0000410183,0.0000738874,-0.0000432391
559095.3400242900,-0.0018291455,-0.0013758196,-9.7940764997,-0.0000410183,0.0000955887,-0.0000323915
559095.3500242900,0.0012240471,-0.0007534842,-9.7934915564,-0.0000627316,0.0000738874,-0.0000540867
559095.3600242900,0.0001611481,-0.0010631232,-9.7930252854,-0.0000193051,0.0000630368,-0.0000323915
559095.3700242901,-0.0018211535,-0.0006138100,-9.7927035631,-0.0000518750,0.0000630368,-0.0000323915
559095.3800242899,-0.0021280654,-0.0007674486,-9.7930061149,-0.0001061581,0.0001172899,-0.0000323915
559095.3900242900,0.0004595304,-0.0009089986,-9.7937903019,-0.0000518750,0.0000738874,-0.0000323915
559095.4000242900,0.0007627868,-0.0007551517,-9.7939452794,-0.0000518750,0.0000738874,-0.0000432391
559095.4100242900,-0.0027448925,-0.0006170756,-9.7937635189,-0.0000518750,0.0000630368,-0.0000323915
559095.4200242900,-0.0027334457,-0.0019901650,-9.7930015980,-0.0000193051,0.0001172899,-0.0000432391
559095.4300242900,0.0006096857,-0.0002982656,-9.7937912917,-0.0000518750,0.0000738874,-0.0000432391
559095.4400242900,0.0001550555,-0.0010627761,-9.7937878342,-0.0000735882,0.0000738874,0.0000001513
559095.4500242900,-0.0021286603,-0.0006149216,-9.7930060451,-0.0000627316,0.0000630368,-0.0000323915
559095.4600242900,-0.0032013074,-0.0009240052,-9.7937598522,-0.0000518750,0.0001064393,-0.0000432391
559095.4700242900,0.0009171638,-0.0006021384,-9.7936414589,-0.0000735882,0.0000738874,-0.0000323915
559095.4800242900,-0.0002994599,-0.0006073489,-9.7931737797,-0.0000410183,0.0000630368,-0.0000323915
559095.4900242900,-0.0035039115,-0.0006204103,-9.7932996460,-0.0000301617,0.0000630368,-0.0000540867
559095.5000242901,-0.0018218344,-0.0013762362,-9.7931614411,-0.0001061581,0.0001064393,-0.0000323915
559095.5100242899,0.0015346145,-0.0006000539,-9.7927314753,-0.0000518750,0.0000738874,-0.0000432391
559095.5200242900,0.0007621919,-0.0006026248,-9.7939452097,-0.0000627316,0.0000738874,-0.0000323915
559095.5300242900,-0.0018242141,-0.0007661286,-9.7931611621,-0.0000627316,0.0000630368,0.0000001513
559095.5400242900,-0.0027424555,-0.0006172144,-9.7934584994,-0.0000410183,0.0001064393,-0.0000432391
559095.5500242900,0.0010715695,-0.0001441406,-9.7931849891,-0.0000193051,0.0000630368,-0.0000540867
559095.5600242900,0.0009159740,-0.0002970845,-9.7936413194,-0.0000627316,0.0000738874,-0.0000215439
559095.5700242900,-0.0024331639,-0.0010736835,-9.7931562267,-0.0000735882,0.0000630368,-0.0000432391
559095.5800242900,-0.0010609159,-0.0006105447,-9.7930149263,-0.0000627316,0.0001064393,-0.0000323915
559095.5900242900,0.0004583406,-0.0006039447,-9.7937901624,-0.0000627316,0.0000630368,-0.0000323915
559095.6000242900,0.0012301396,-0.0007538313,-9.7927290076,-0.0000410183,0.0000738874,-0.0000432391
559095.6100242900,-0.0021305024,-0.0007673097,-9.7933111344,-0.0000627316,0.0000630368,-0.0000323915
559095.6200242901,-0.0006081852,-0.0006083911,-9.7936287715,-0.0000518750,0.0000847381,-0.0000323915
559095.6300242899,0.0004559609,0.0000061629,-9.7937898834,-0.0000410183,0.0000738874,-0.0000432391
559095.6400242900,0.0009201384,-0.0013647729,-9.7936418077,-0.0000518750,0.0000738874,-0.0000323915
559095.6500242900,-0.0016728690,-0.0004604495,-9.7931622913,-0.0000518750,0.0000738874,-0.0000323915
559095.6600242900,-0.0013677418,0.0001507699,-9.7928595303,-0.0000627316,0.0000847381,-0.0000323915
559095.6700242900,-0.0013672329,-0.0009167102,-9.7933175478,-0.0000410183,0.0000738874,-0.0000215439
559095.6800242900,-0.0007571220,-0.0012191935,-9.7934752720,-0.0000410183,0.0000738874,-0.0000432391
559095.6900242900,-0.0019786198,-0.0012241263,-9.7936176319,-0.0000518750,0.0000738874,-0.0000323915
559095.7000242900,-0.0022896674,-0.0000050921,-9.7937670461,-0.0000735882,0.0000847381,-0.0000323915
559095.7100242900,0.0007664997,-0.0001453912,-9.7931824516,-0.0000735882,0.0000738874,-0.0000323915
559095.7200242900,0.0003106224,-0.0012148166,-9.7934841532,-0.0000301617,0.0000738874,-0.0000432391
559095.7300242910,-0.0016747684,-0.0012228063,-9.7937726791,-0.0000518750,0.0000738874,-0.0000323915
559095.7400242910,-0.0024349200,-0.0003111184,-9.7930033681,-0.0000627316,0.0000847381,-0.0000323915
559095.7500242910,-0.0007595303,-0.0009140702,-9.7936276423,-0.0000193051,0.0000738874,-0.0000432391
559095.7600242910,0.0001611194,-0.0013681076,-9.7931779347,-0.0000410183,0.0000738874,-0.0000215439
559095.7700242910,-0.0012153216,-0.0010685424,-9.7934713961,-0.0001061581,0.0000630368,-0.0000432391
559095.7800242910,-0.0025892396,0.0001458371,-9.7930018901,-0.0000410183,0.0000955887,-0.0000323915
559095.7900242910,-0.0001505518,-0.0003015309,-9.7934799284,-0.0000518750,0.0000738874,-0.0000215439
559095.8000242910,0.0009285819,-0.0022802122,-9.7930321872,-0.0000627316,0.0000847381,-0.0000432391
559095.8100242910,-0.0015167072,-0.0007650169,-9.7928586801,-0.0000410183,0.0000630368,-0.0000432391
559095.8200242911,-0.0019840314,-0.0004613528,-9.7939223026,-0.0000301617,0.0000847381,-0.0000323915
559095.8300242909,-0.0004562739,-0.0007602233,-9.7937826198,-0.0000735882,0.0000738874,-0.0000432391
559095.8400242910,0.0004649420,-0.0016717720,-9.7934856312,-0.0000627316,0.0000738874,-0.0000323915
559095.8500242910,-0.0012147267,-0.0012210693,-9.7934714658,-0.0000518750,0.0000630368,-0.0000323915
559095.8600242910,-0.0016734352,-0.0000029381,-9.7930095723,-0.0000735882,0.0000847381,-0.0000432391
559095.8700242910,-0.0013672903,-0.0015266790,-9.7936228464,-0.0000410183,0.0000738874,-0.0000432391
559095.8800242910,0.0007657614,-0.0015177863,-9.7939456282,-0.0000193051,0.0000738874,-0.0000323915
559095.8900242910,-0.0004550267,-0.0004553084,-9.7934774607,-0.0000735882,0.0000630368,-0.0000323915
559095.9000242910,-0.0022794105,-0.0010731277,-9.7930049856,-0.0000518750,0.0000738874,-0.0000323915
559095.9100242910,-0.0004514286,-0.0010654855,-9.7933252300,-0.0000627316,0.0000738874,-0.0000432391
559095.9200242910,0.0006199426,-0.0013663012,-9.7930292312,-0.0000953015,0.0000738874,-0.0000323915
559095.9300242910,-0.0009095995,-0.0006098500,-9.7931687048,-0.0000627316,0.0000738874,-0.0000215439
559095.9400242910,-0.0015227711,-0.0004596853,-9.7934685796,-0.0000193051,0.0000738874,-0.0000432391
559095.9500242911,-0.0010646001,-0.0009153208,-9.7936251048,-0.0000518750,0.0000738874,-0.0000432391
559095.9600242910,-0.0001500716,-0.0016739954,-9.7940905953,-0.0000627316,0.0000630368,-0.0000323915
559095.9700242910,-0.0018241854,-0.0004611442,-9.7930085128,-0.0000627316,0.0000738874,-0.0000432391
559095.9800242910,-0.0010650804,0.0004571437,-9.7930144380,-0.0000953015,0.0000955887,-0.0000323915
559095.9900242910,-0.0007595303,-0.0009140702,-9.7936276423,-0.0000518750,0.0000630368,-0.0000323915
559096.0000242910,-0.0009078148,-0.0010674307,-9.7931689140,-0.0000301617,0.0000847381,-0.0000323915
559096.0100242910,-0.0013720210,-0.0000014793,-9.7934696390,-0.0000735882,0.0000738874,-0.0000215439
559096.0200242910,-0.0018254039,-0.0004610747,-9.7931610226,-0.0000301617,0.0000847381,-0.0000540867
559096.0300242910,-0.0003000835,-0.0007598064,-9.7933263592,-0.0000301617,0.0000738874,-0.0000323915
559096.0400242910,-0.0009072199,-0.0012199577,-9.7931689838,-0.0001061581,0.0000847381,-0.0000323915
559096.0500242910,-0.0010585650,-0.0015256368,-9.7931678546,-0.0000735882,0.0000738874,-0.0000323915
559096.0600242910,-0.0015251508,0.0001504224,-9.7934683005,-0.0000518750,0.0000847381,-0.0000432391
559096.0700242911,-0.0016783093,-0.0000026604,-9.7936196113,-0.0000518750,0.0000738874,-0.0000323915
559096.0800242909,-0.0004466692,-0.0022857008,-9.7933257880,-0.0000518750,0.0000738874,-0.0000323915
559096.0900242910,-0.0006088088,-0.0007608486,-9.7937813510,-0.0000410183,0.0000413356,-0.0000432391
559096.1000242910,-0.0013671182,0.0003032274,-9.7927069507,-0.0000953015,0.0000955887,-0.0000323915
559096.1100242910,-0.0004483966,-0.0012181513,-9.7930202802,-0.0000301617,0.0000738874,-0.0000323915
559096.1200242910,-0.0009084384,-0.0012198882,-9.7933214935,-0.0000410183,0.0000738874,-0.0000215439
559096.1300242910,-0.0012165115,-0.0007634886,-9.7934712566,-0.0000953015,0.0000630368,-0.0000323915
559096.1400242910,-0.0006051533,-0.0007610569,-9.7933238217,-0.0000301617,0.0000955887,-0.0000323915
559096.1500242910,-0.0004544318,-0.0006078353,-9.7934775305,-0.0000193051,0.0000630368,-0.0000432391
559096.1600242910,-0.0012135082,-0.0012211388,-9.7933189561,-0.0000735882,0.0000847381,-0.0000432391
559096.1700242910,-0.0018273034,-0.0012234316,-9.7937714104,-0.0000735882,0.0000738874,-0.0000432391
559096.1800242910,-0.0012194860,-0.0000008540,-9.7934709078,-0.0000518750,0.0000738874,-0.0000323915
559096.1900242910,0.0003070529,-0.0002996551,-9.7934837347,-0.0000735882,0.0000738874,-0.0000215439
559096.2000242911,-0.0009036504,-0.0021351192,-9.7931694023,-0.0000410183,0.0000738874,-0.0000432391
559096.2100242910,-0.0018284358,-0.0003084089,-9.7934659723,-0.0000518750,0.0000738874,-0.0000432391
559096.2200242910,-0.0007600392,0.0001534099,-9.7931696247,-0.0000627316,0.0000847381,-0.0000323915
559096.2300242910,0.0000043341,-0.0012159977,-9.7936341255,-0.0000410183,0.0000738874,-0.0000323915
559096.2400242910,-0.0001506379,-0.0012164841,-9.7939378763,-0.0000735882,0.0000738874,-0.0000215439
559096.2500242910,-0.0018248090,-0.0006136017,-9.7931610923,-0.0001170148,0.0000847381,-0.0000323915
559096.2600242910,-0.0009120366,-0.0006097111,-9.7934737243,-0.0000301617,0.0000738874,-0.0000323915
559096.2700242910,-0.0006027450,-0.0010661802,-9.7931714515,-0.0000301617,0.0000738874,-0.0000323915
559096.2800242910,-0.0004502674,-0.0016755237,-9.7934780188,-0.0000735882,0.0000630368,-0.0000432391
559096.2900242910,-0.0019821893,-0.0003089648,-9.7936172134,-0.0000301617,0.0000630368,-0.0000432391
559096.3000242910,-0.0003078748,0.0006130748,-9.7936307509,-0.0000627316,0.0000955887,-0.0000323915
559096.3100242910,0.0003100561,-0.0007573053,-9.7933314342,-0.0000735882,0.0000738874,-0.0000215439
559096.3200242911,-0.0004472355,-0.0018281895,-9.7931730690,-0.0000518750,0.0000630368,-0.0000432391
559096.3300242909,-0.0028931769,-0.0007704361,-9.7933047907,-0.0000518750,0.0000630368,-0.0000323915
559096.3400242910,-0.0009102231,-0.0007623075,-9.7933212843,-0.0000410183,0.0001172899,-0.0000432391
559096.3500242910,0.0004577457,-0.0004514178,-9.7937900927,-0.0000410183,0.0000630368,-0.0000540867
559096.3600242910,-0.0006021501,-0.0012187071,-9.7931715213,-0.0000410183,0.0000738874,-0.0000323915
559096.3700242910,-0.0027412083,-0.0003122995,-9.7931533404,-0.0000735882,0.0000738874,-0.0000215439
559096.3800242910,-0.0010591312,-0.0010681255,-9.7930151355,-0.0000410183,0.0000847381,-0.0000323915
559096.3900242910,0.0019855318,-0.0004453039,-9.7934977605,-0.0000627316,0.0000738874,-0.0000432391
559096.4000242910,-0.0000005113,-0.0009107355,-9.7940915152,-0.0000518750,0.0000630368,-0.0000432391
559096.4100242910,-0.0024362245,-0.0012260021,-9.7936138257,-0.0000301617,0.0000738874,-0.0000323915
559096.4200242910,-0.0015227424,-0.0001547009,-9.7933159303,-0.0000518750,0.0000738874,-0.0000323915
559096.4300242910,0.0003106510,-0.0009098322,-9.7933315039,-0.0000735882,0.0000847381,-0.0000323915
559096.4400242910,-0.0015143276,-0.0013751246,-9.7928589591,-0.0000410183,0.0000630368,-0.0000323915
559096.4500242911,-0.0019767490,-0.0007667538,-9.7931598934,-0.0000953015,0.0000955887,-0.0000323915
559096.4600242910,-0.0013720783,-0.0006114481,-9.7937749376,-0.0000627316,0.0000738874,-0.0000432391
559096.4700242910,0.0006138788,-0.0010609697,-9.7936391307,-0.0000084485,0.0000738874,-0.0000215439
559096.4800242910,-0.0013690177,-0.0004591295,-9.7933173385,-0.0000627316,0.0000738874,-0.0000323915
559096.4900242910,-0.0027364489,-0.0015325148,-9.7931538985,-0.0000518750,0.0000738874,-0.0000432391
559096.5000242910,-0.0013781422,-0.0003061165,-9.7943848371,-0.0000518750,0.0000847381,-0.0000323915
559096.5100242910,0.0001563887,0.0001570921,-9.7930247274,-0.0000735882,0.0000738874,-0.0000215439
559096.5200242910,-0.0001433268,-0.0012169007,-9.7930228177,-0.0000735882,0.0000738874,-0.0000323915
559096.5300242910,-0.0022781920,-0.0010731971,-9.7928524759,-0.0000410183,0.0000847381,-0.0000432391
559096.5400242910,-0.0016759009,-0.0003077837,-9.7934672411,-0.0000518750,0.0000847381,-0.0000323915
559096.5500242910,0.0004632146,-0.0006042225,-9.7931801234,-0.0000301617,0.0000847381,-0.0000323915
559096.5600242910,0.0001574926,-0.0010629149,-9.7934828147,-0.0000518750,0.0000738874,-0.0000323915
559096.5700242911,-0.0022842558,-0.0007678655,-9.7934623754,-0.0000953015,0.0000738874,-0.0000540867
559096.5800242909,-0.0013708311,-0.0003065331,-9.7934697786,-0.0000518750,0.0000955887,-0.0000323915
559096.5900242910,0.0004607489,-0.0009090680,-9.7936377922,-0.0000627316,0.0000738874,-0.0000215439
559096.6000242910,-0.0006064005,-0.0010659719,-9.7936289808,-0.0000518750,0.0000630368,-0.0000540867
559096.6100242910,-0.0022836322,-0.0006154080,-9.7933097959,-0.0000627316,0.0000738874,-0.0000323915
559096.6200242910,-0.0016729264,-0.0010704183,-9.7934675899,-0.0000301617,0.0000955887,-0.0000540867
559096.6300242910,0.0004614586,0.0001583427,-9.7930272649,-0.0000627316,0.0000630368,-0.0000432391
559096.6400242910,0.0000061761,-0.0010636096,-9.7933290362,-0.0000627316,0.0000738874,-0.0000215439
559096.6500242910,-0.0019755878,-0.0013767921,-9.7933126821,-0.0000518750,0.0000738874,-0.0000432391
559096.6600242910,-0.0022866355,-0.0001577579,-9.7934620964,-0.0000735882,0.0000847381,-0.0000432391
559096.6700242910,0.0000037965,-0.0004535020,-9.7933287572,-0.0000518750,0.0000738874,-0.0000323915
559096.6800242910,0.0000085558,-0.0016737173,-9.7933293152,-0.0000301617,0.0000738874,-0.0000323915
559096.6900242910,-0.0018272747,-0.0009184472,-9.7936187611,-0.0000410183,0.0000738874,-0.0000432391
559096.7000242911,-0.0024427972,0.0001468096,-9.7937657076,-0.0000735882,0.0000847381,-0.0000432391
559096.7100242910,-0.0002963993,-0.0004550303,-9.7927161807,-0.0000410183,0.0000630368,-0.0000215439
559096.7200242910,-0.0007559322,-0.0015242473,-9.7934754116,-0.0000735882,0.0000738874,-0.0000215439
559096.7300242910,-0.0019792147,-0.0010715994,-9.7936175621,-0.0000735882,0.0000738874,-0.0000432391
559096.7400242910,-0.0013708598,-0.0006115175,-9.7936224278,-0.0000301617,0.0000738874,-0.0000432391
559096.7500242910,-0.0003060900,0.0001554940,-9.7936309602,-0.0000410183,0.0000738874,-0.0000432391
559096.7600242910,0.0004631573,-0.0012141913,-9.7934854219,-0.0000518750,0.0000738874,-0.0000323915
559096.7700242910,-0.0021305598,-0.0013772785,-9.7936164329,-0.0000735882,0.0000738874,-0.0000215439
559096.7800242910,-0.0021341579,-0.0007671014,-9.7937686637,-0.0000627316,0.0000738874,-0.0000215439
559096.7900242910,-0.0001505232,0.0000034535,-9.7933272792,-0.0000735882,0.0000738874,-0.0000323915
559096.8000242920,0.0001593346,-0.0009105269,-9.7931777254,-0.0000301617,0.0000738874,-0.0000432391
559096.8100242920,-0.0013683941,-0.0003066720,-9.7931647590,-0.0000410183,0.0000738874,-0.0000323915
559096.8200242920,-0.0016740875,-0.0004603800,-9.7933148011,-0.0000518750,0.0000847381,-0.0000323915
559096.8300242920,0.0000031729,-0.0006059595,-9.7934813367,-0.0000410183,0.0000738874,-0.0000323915
559096.8400242920,-0.0009107894,-0.0003047962,-9.7931685652,-0.0000627316,0.0000738874,-0.0000215439
559096.8500242920,-0.0013636061,-0.0012219029,-9.7930126678,-0.0000735882,0.0000847381,-0.0000323915
559096.8600242920,-0.0015197965,-0.0012223199,-9.7934689284,-0.0000410183,0.0000630368,-0.0000323915
559096.8700242920,0.0003076191,-0.0007571664,-9.7936364537,-0.0000518750,0.0000738874,-0.0000540867
559096.8800242920,-0.0004489629,-0.0007606400,-9.7928675612,-0.0000518750,0.0000738874,-0.0000323915
559096.8900242920,-0.0009035930,-0.0015251504,-9.7928641038,-0.0000627316,0.0000738874,-0.0000323915
559096.9000242919,-0.0022817901,-0.0004630200,-9.7930047066,-0.0000627316,0.0000738874,-0.0000432391
559096.9100242920,0.0001587397,-0.0007580000,-9.7931776557,-0.0000627316,0.0000738874,-0.0000215439
559096.9200242920,-0.0006033399,-0.0009136533,-9.7931713817,-0.0000627316,0.0000738874,0.0000001513
559096.9300242920,-0.0022836322,-0.0006154080,-9.7933097959,-0.0000735882,0.0000738874,-0.0000432391
559096.9400242920,-0.0015234234,-0.0009171272,-9.7937738084,-0.0000410183,0.0000847381,-0.0000323915
559096.9500242920,-0.0009120366,-0.0006097111,-9.7934737243,-0.0000301617,0.0000847381,-0.0000432391
559096.9600242920,0.0004607489,-0.0009090680,-9.7936377922,-0.0000518750,0.0000738874,-0.0000323915
559096.9700242920,-0.0018223720,-0.0006137405,-9.7928560728,-0.0000735882,0.0000738874,-0.0000323915
559096.9800242920,-0.0015185207,-0.0006124205,-9.7930111201,-0.0000627316,0.0000738874,-0.0000323915
559096.9900242920,-0.0010609446,-0.0009155291,-9.7931675755,-0.0000518750,0.0000738874,-0.0000215439
559097.0000242920,0.0000068284,-0.0006061678,-9.7930238074,-0.0000518750,0.0000738874,-0.0000432391
559097.0100242920,-0.0018248090,-0.0006136017,-9.7931610923,-0.0000735882,0.0000738874,-0.0000432391
559097.0200242921,-0.0012207619,-0.0006107534,-9.7939287161,-0.0000410183,0.0000738874,-0.0000323915
559097.0300242919,0.0003058630,0.0000053988,-9.7934835951,-0.0000627316,0.0000847381,0.0000001513
559097.0400242920,0.0010709173,-0.0006015825,-9.7934902179,-0.0000518750,0.0000738874,-0.0000215439
559097.0500242920,-0.0016686759,-0.0012231535,-9.7930101303,-0.0000953015,0.0000738874,-0.0000323915
559097.0600242920,-0.0025917340,-0.0004639928,-9.7936122082,-0.0000627316,0.0000738874,-0.0000323915
559097.0700242920,-0.0007581971,0.0003057979,-9.7928645354,-0.0000410183,0.0000847381,-0.0000432391
559097.0800242920,0.0009189773,-0.0007547347,-9.7934890189,-0.0000301617,0.0000738874,-0.0000432391
559097.0900242920,-0.0007559608,-0.0018292317,-9.7936280608,-0.0000627316,0.0000630368,-0.0000323915
559097.1000242920,-0.0019828128,-0.0004614223,-9.7937697929,-0.0000627316,0.0000955887,-0.0000215439
559097.1100242920,-0.0012164828,-0.0004585042,-9.7933186073,-0.0000301617,0.0000738874,-0.0000215439
559097.1200242920,0.0001568976,-0.0009103880,-9.7934827449,-0.0000735882,0.0000738874,-0.0000323915
559097.1300242920,-0.0012123470,-0.0018311770,-9.7934717449,-0.0000518750,0.0000738874,-0.0000432391
559097.1400242920,-0.0018260562,-0.0009185166,-9.7934662514,-0.0000627316,0.0000847381,-0.0000323915
559097.1500242919,-0.0007618526,0.0003060062,-9.7933220647,-0.0000410183,0.0000630368,-0.0000432391
559097.1600242920,-0.0001438931,-0.0007593894,-9.7928700987,-0.0000193051,0.0000738874,-0.0000215439
559097.1700242920,-0.0013636348,-0.0015268873,-9.7931653171,-0.0000627316,0.0000738874,-0.0000215439
559097.1800242920,-0.0015197679,-0.0009173355,-9.7933162791,-0.0000953015,0.0000738874,-0.0000323915
559097.1900242920,-0.0012194860,-0.0000008540,-9.7934709078,-0.0000518750,0.0000847381,-0.0000540867
559097.2000242920,-0.0001499569,-0.0004540578,-9.7934799982,-0.0000301617,0.0000738874,-0.0000432391
559097.2100242920,-0.0006028023,-0.0016761490,-9.7934767500,-0.0000410183,0.0000738874,-0.0000323915
559097.2200242920,-0.0018260849,-0.0012235010,-9.7936189006,-0.0000301617,0.0000738874,-0.0000432391
559097.2300242920,-0.0013744580,-0.0000013404,-9.7937746586,-0.0000518750,0.0000738874,-0.0000215439
559097.2400242920,0.0000044201,-0.0003010445,-9.7931761777,-0.0000627316,0.0000955887,-0.0000215439
559097.2500242920,0.0004625337,-0.0013666488,-9.7936380015,-0.0000410183,0.0000630368,-0.0000215439
559097.2600242920,-0.0025905441,-0.0007690466,-9.7936123477,-0.0000735882,0.0000738874,-0.0000432391
559097.2700242921,-0.0027460823,-0.0003120217,-9.7937633794,-0.0000518750,0.0000955887,-0.0000432391
559097.2800242919,0.0010770098,-0.0006019297,-9.7927276691,-0.0000193051,0.0000847381,-0.0000323915
559097.2900242920,-0.0001408611,-0.0009120552,-9.7925651489,-0.0000627316,0.0000738874,-0.0000323915
559097.3000242920,-0.0027442976,-0.0007696025,-9.7937635887,-0.0000627316,0.0000738874,-0.0000323915
559097.3100242920,-0.0015263980,-0.0001544926,-9.7937734596,-0.0000518750,0.0000955887,-0.0000323915
559097.3200242920,0.0007585364,-0.0006024164,-9.7944027389,-0.0000735882,0.0000738874,-0.0000432391
559097.3300242920,0.0000128349,-0.0015214681,-9.7927192064,-0.0000518750,0.0000738874,-0.0000432391
559097.3400242920,-0.0027382050,-0.0007699497,-9.7930010399,-0.0000301617,0.0000413356,-0.0000215439
559097.3500242920,-0.0021328247,0.0004527668,-9.7930055568,-0.0000518750,0.0001064393,-0.0000323915
559097.3600242920,0.0009274781,-0.0010602052,-9.7925740998,-0.0000410183,0.0000738874,-0.0000323915
559097.3700242920,-0.0002952668,-0.0013700529,-9.7930216187,-0.0000627316,0.0000738874,-0.0000215439
559097.3800242920,-0.0038181058,-0.0004686478,-9.7943646071,-0.0000953015,0.0000738874,-0.0000432391
559097.3900242920,-0.0013805505,-0.0000009932,-9.7945372073,-0.0000518750,0.0000955887,-0.0000540867
559097.4000242919,0.0016780250,-0.0004464156,-9.7938002426,-0.0000301617,0.0000847381,-0.0000323915
559097.4100242920,0.0003069669,-0.0012146083,-9.7939416825,-0.0000627316,0.0000630368,-0.0000215439
559097.4200242920,-0.0032030921,-0.0004664245,-9.7937596430,-0.0000518750,0.0000738874,-0.0000323915
559097.4300242920,-0.0022860406,-0.0003102848,-9.7934621661,-0.0000627316,0.0000738874,-0.0000323915
559097.4400242920,0.0007712877,-0.0010606221,-9.7930303604,-0.0000518750,0.0000847381,-0.0000323915
559097.4500242920,0.0009207620,-0.0012123155,-9.7934892281,-0.0001061581,0.0000738874,-0.0000323915
559097.4600242920,-0.0016747684,-0.0012228063,-9.7937726791,-0.0000735882,0.0000738874,-0.0000432391
559097.4700242920,-0.0029040575,0.0001451421,-9.7942194307,-0.0000518750,0.0000955887,-0.0000323915
559097.4800242920,0.0007694456,-0.0012130102,-9.7933354497,-0.0000410183,0.0000738874,-0.0000215439
559097.4900242920,0.0006169107,-0.0012136355,-9.7933341809,-0.0000518750,0.0000630368,-0.0000323915
559097.5000242920,-0.0016753060,-0.0004603106,-9.7934673108,-0.0000627316,0.0000738874,-0.0000432391
559097.5100242920,-0.0019773439,-0.0006142269,-9.7931598236,-0.0000518750,0.0000847381,-0.0000432391
559097.5200242921,-0.0007588781,-0.0004566284,-9.7933224135,-0.0000627316,0.0000738874,-0.0000432391
559097.5300242919,0.0010781136,-0.0018219367,-9.7931857564,-0.0000627316,0.0000630368,-0.0000215439
559097.5400242920,-0.0018248663,-0.0012235704,-9.7934663909,-0.0000410183,0.0000413356,0.0000001513
559097.5500242920,-0.0022817615,-0.0001580356,-9.7928520573,-0.0000410183,0.0000955887,-0.0000215439
559097.5600242920,-0.0007582545,-0.0003041709,-9.7931698340,-0.0000518750,0.0000738874,-0.0000215439
559097.5700242920,0.0004667555,-0.0018243684,-9.7933331912,-0.0000627316,0.0000738874,-0.0000540867
559097.5800242920,-0.0025898919,-0.0003116048,-9.7933071189,-0.0000953015,0.0000738874,-0.0000323915
559097.5900242920,-0.0022860406,-0.0003102848,-9.7934621661,-0.0000627316,0.0000738874,-0.0000432391
559097.6000242920,0.0000043627,-0.0009110133,-9.7934814762,-0.0000193051,0.0000738874,-0.0000432391
559097.6100242920,-0.0001469823,-0.0012166924,-9.7934803470,-0.0000735882,0.0000738874,-0.0000323915
559097.6200242920,-0.0016759583,-0.0009177525,-9.7937725396,-0.0000518750,0.0000738874,-0.0000323915
559097.6300242920,-0.0010651377,-0.0001528251,-9.7933197365,-0.0000518750,0.0000847381,-0.0000540867
559097.6400242920,-0.0000011349,-0.0010631930,-9.7942440948,-0.0000735882,0.0000738874,-0.0000323915
559097.6500242919,-0.0003000835,-0.0007598064,-9.7933263592,-0.0000627316,0.0000738874,-0.0000323915
559097.6600242920,-0.0015227424,-0.0001547009,-9.7933159303,-0.0000518750,0.0000738874,-0.0000540867
559097.6700242920,-0.0015251221,0.0004554068,-9.7933156513,-0.0000518750,0.0000738874,-0.0000215439
559097.6800242920,0.0000097456,-0.0019787711,-9.7933294547,-0.0000301617,0.0000738874,-0.0000323915
559097.6900242920,-0.0001487958,-0.0010640960,-9.7936327870,-0.0000410183,0.0000738874,-0.0000323915
559097.7000242920,-0.0013726159,0.0001510476,-9.7934695693,-0.0000953015,0.0000738874,-0.0000323915
559097.7100242920,-0.0015184920,-0.0003074361,-9.7928584708,-0.0000518750,0.0000738874,-0.0000323915
559097.7200242920,-0.0002988937,-0.0010648602,-9.7933264987,-0.0000627316,0.0000847381,-0.0000323915
559097.7300242920,0.0003154964,-0.0012150943,-9.7928741142,-0.0000735882,0.0000738874,-0.0000432391
559097.7400242920,-0.0016747111,-0.0006128375,-9.7934673806,-0.0000193051,0.0000630368,-0.0000323915
559097.7500242920,-0.0018241567,-0.0001561598,-9.7928558636,-0.0000301617,0.0000738874,-0.0000323915
559097.7600242920,-0.0002959191,-0.0018274948,-9.7933268475,-0.0000627316,0.0000847381,-0.0000432391
559097.7700242921,0.0004631573,-0.0012141913,-9.7934854219,-0.0000735882,0.0000630368,-0.0000323915
559097.7800242919,-0.0013756191,0.0006086978,-9.7936218698,-0.0000735882,0.0000738874,-0.0000323915
559097.7900242920,-0.0013690177,-0.0004591295,-9.7933173385,-0.0000518750,0.0000847381,-0.0000432391
559097.8000242920,-0.0010616542,-0.0019829398,-9.7937781029,-0.0000301617,0.0000847381,-0.0000432391
559097.8100242920,0.0000086705,-0.0004537797,-9.7927187182,-0.0000627316,0.0000738874,-0.0000323915
559097.8200242920,-0.0006099413,0.0001541740,-9.7934759130,-0.0000410183,0.0000630368,-0.0000323915
