t(s),acc_x,acc_y,acc_z,gyro_x,gyro_y,gyro_z
558958.0000241620,-0.0008254009,0.0021866892,9.7934405226,-0.0001061581,0.0000738874,0.0000218465
558958.0100241620,-0.0024817819,-0.0023962047,9.7939099153,0.0001869709,0.0000738874,0.0000326941
558958.0200241620,-0.0026450540,0.0000436702,9.7937597904,-0.0004535703,0.0000738874,0.0000218465
558958.0300241620,0.0010151316,-0.0003987651,9.7934241119,0.0004149601,0.0000521862,0.0000326941
558958.0400241620,0.0002668211,-0.0031475843,9.7938867292,-0.0006164197,0.0001064393,0.0000326941
558958.0500241620,-0.0024996580,0.0018746184,9.7937593587,0.0004583866,0.0000413356,0.0000543893
558958.0600241621,-0.0017114308,-0.0049858970,9.7935973662,-0.0005404233,0.0000738874,0.0000218465
558958.0700241619,0.0006958411,0.0038705992,9.7937336220,0.0003172504,0.0000738874,0.0000326941
558958.0800241620,0.0008840710,-0.0052803906,9.7937281679,-0.0002472943,0.0000738874,0.0000218465
558958.0900241620,-0.0026538630,0.0035515115,9.7943714338,-0.0000301617,0.0000847381,0.0000326941
558958.1000241620,-0.0020187942,-0.0034620867,9.7940581305,0.0001001178,0.0000738874,0.0000326941
558958.1100241620,-0.0000567485,0.0009695308,9.7935861306,-0.0004535703,0.0000738874,0.0000326941
558958.1200241620,0.0002506436,-0.0002492951,9.7932780156,0.0004366733,0.0000847381,0.0000326941
558958.1300241620,-0.0023317413,-0.0030054093,9.7932983285,-0.0005947064,0.0000847381,0.0000326941
558958.1400241620,-0.0017447748,0.0032506260,9.7934486233,0.0005343830,0.0000304849,0.0000326941
558958.1500241620,0.0007315648,-0.0049760314,9.7938820859,-0.0005512799,0.0000847381,0.0000326941
558958.1600241620,0.0005493987,0.0038696267,9.7944974396,0.0002738239,0.0000738874,0.0000435417
558958.1700241620,-0.0015558926,-0.0054429219,9.7937483980,-0.0002038678,0.0000955887,0.0000326941
558958.1800241621,-0.0020413437,0.0029439049,9.7943660798,-0.0001604413,0.0000738874,0.0000001513
558958.1900241619,0.0004085041,-0.0019263965,9.7931234697,0.0002412540,0.0000630368,-0.0003469717
558958.2000241620,0.0019322118,0.0000623590,9.7938742380,-0.0004861401,0.0000847381,-0.0015510546
558958.2100241620,0.0007012527,0.0031078257,9.7940382928,0.0005126697,0.0000738874,-0.0034819263
558958.2200241620,-0.0015677909,-0.0023923836,9.7937497931,-0.0005512799,0.0000738874,-0.0049029610
558958.2300241620,0.0008466200,0.0046337896,9.7938852118,0.0005018131,0.0000738874,-0.0062155198
558958.2400241620,0.0016408251,-0.0034470106,9.7938751711,-0.0004101437,0.0000847381,-0.0073219744
558958.2500241620,-0.0002103012,0.0031038657,9.7945034345,0.0002303974,0.0000630368,-0.0079077444
558958.2600241620,-0.0012543063,-0.0036115567,9.7942042268,-0.0000193051,0.0001064393,-0.0087538567
558958.2700241620,-0.0002169887,0.0032567399,9.7937409554,-0.0001061581,0.0000738874,-0.0095782739
558958.2800241620,0.0007191576,-0.0008580130,9.7943414986,0.0003715336,0.0000521862,-0.0101965867
558958.2900241630,0.0004074003,-0.0007063894,9.7935815571,-0.0004427136,0.0000847381,-0.0111186322
558958.3000241630,-0.0005137296,0.0011201125,9.7937425163,0.0005560963,0.0000847381,-0.0118128781
558958.3100241630,0.0001047101,-0.0013177477,9.7935838155,-0.0005295667,0.0000847381,-0.0127349236
558958.3200241630,-0.0005250331,0.0040181239,9.7937438417,0.0005343830,0.0000630368,-0.0138739209
558958.3300241630,0.0008888590,-0.0061956215,9.7938802591,-0.0003124341,0.0000738874,-0.0146657953
558958.3400241630,0.0003902624,0.0049368287,9.7941941771,0.0002629673,0.0000847381,-0.0156203835
558958.3500241630,-0.0014122241,-0.0025444241,9.7940534741,0.0000458347,0.0000521862,-0.0166292097
558958.3600241630,-0.0017387682,0.0023353256,9.7937532243,-0.0000953015,0.0000738874,-0.0172909129
558958.3700241630,0.0005695399,-0.0022312417,9.7940371200,0.0004366733,0.0000738874,-0.0183214343
558958.3800241631,0.0007107427,0.0003624107,9.7938845274,-0.0003667172,0.0001064393,-0.0191892418
558958.3900241629,-0.0005232770,0.0032555587,9.7935909832,0.0006212360,0.0000521862,-0.0199268782
558958.4000241630,-0.0006483024,-0.0022363827,9.7943522895,-0.0004318570,0.0000738874,-0.0210984183
558958.4100241630,-0.0008277232,0.0034067657,9.7937461001,0.0006320927,0.0000413356,-0.0218252070
558958.4200241630,0.0008823436,-0.0042128410,9.7940336757,-0.0002798642,0.0000955887,-0.0225303006
558958.4300241630,0.0012988418,0.0057034233,9.7937293842,0.0003932468,0.0000955887,-0.0236150600
558958.4400241630,-0.0017107498,-0.0042234707,9.7940552443,0.0000349781,0.0000738874,-0.0242116776
558958.4500241630,-0.0002127382,0.0031040046,9.7941984150,0.0000024082,0.0000738874,-0.0252096562
558958.4600241630,0.0004116221,-0.0011641091,9.7938863673,0.0004692432,0.0000521862,-0.0263378060
558958.4700241630,0.0000988183,0.0008174903,9.7938898116,-0.0003124341,0.0000738874,-0.0268910332
558958.4800241630,-0.0005166469,0.0024927158,9.7940481636,0.0007515156,0.0000521862,-0.0281927445
558958.4900241630,-0.0012573669,-0.0037638753,9.7937466278,-0.0003992871,0.0000738874,-0.0289303808
558958.5000241630,-0.0002174689,0.0046292044,9.7943516223,0.0006646626,0.0000630368,-0.0294510653
558958.5100241631,0.0014906985,-0.0037527592,9.7940288101,-0.0001495846,0.0000955887,-0.0304056536
558958.5200241629,-0.0012846757,0.0038623317,9.7940551351,0.0002738239,0.0000738874,-0.0312734611
558958.5300241630,-0.0018722945,-0.0028511454,9.7935996115,0.0003606769,0.0000630368,-0.0320002498
558958.5400241630,-0.0008181185,0.0018812882,9.7942029319,-0.0001278714,0.0000847381,-0.0332151803
558958.5500241630,0.0016174800,0.0009766172,9.7931146452,0.0007080891,0.0000304849,-0.0339094263
558958.5600241630,-0.0001949767,-0.0023867561,9.7937383745,-0.0003232907,0.0000955887,-0.0347880814
558958.5700241630,-0.0003695236,0.0032561146,9.7937422242,0.0007840855,0.0000738874,-0.0359704691
558958.5800241630,-0.0007967302,-0.0039146652,9.7940477714,-0.0002472943,0.0000630368,-0.0366213247
558958.5900241630,0.0008460537,0.0050913009,9.7940379309,0.0005669529,0.0000630368,-0.0375976081
558958.6000241630,0.0007255009,-0.0046706999,9.7932721864,0.0001544010,0.0000847381,-0.0383786349
558958.6100241630,-0.0002091114,0.0027988119,9.7945032950,0.0001435444,0.0000738874,-0.0390294905
558958.6200241630,-0.0000477961,-0.0010133885,9.7937377335,0.0005995228,0.0000630368,-0.0401467926
558958.6300241631,0.0001024165,0.0002073132,9.7940420424,-0.0002038678,0.0000955887,-0.0410037525
558958.6400241629,0.0008609553,0.0015831124,9.7941888362,0.0008492253,0.0000521862,-0.0417196937
558958.6500241630,-0.0007990525,-0.0026945888,9.7943533489,-0.0003341473,0.0000955887,-0.0428369958
558958.6600241630,-0.0017482869,0.0047757563,9.7937543404,0.0007840855,0.0000413356,-0.0434770039
558958.6700241630,0.0004271186,-0.0048248245,9.7940372029,-0.0000518750,0.0000955887,-0.0442905734
558958.6800241630,0.0002364230,0.0040213197,9.7935849883,0.0005235264,0.0000738874,-0.0454512659
558958.6900241630,0.0007225837,-0.0032980965,9.7935778337,0.0003389637,0.0000738874,-0.0460261884
558958.7000241630,-0.0008264187,0.0043216494,9.7943565577,0.0000349781,0.0000847381,-0.0470024718
558958.7100241630,0.0001089893,-0.0011654985,9.7941939243,0.0007080891,0.0000304849,-0.0480112980
558958.7200241630,-0.0001997934,-0.0017765095,9.7934336340,-0.0001495846,0.0000955887,-0.0484994397
558958.7300241630,0.0013107688,0.0029578694,9.7938806383,0.0009360783,0.0000521862,-0.0495299611
558958.7400241630,-0.0009552716,-0.0029999901,9.7937444391,-0.0001821545,0.0000847381,-0.0505821777
558958.7500241630,-0.0006799763,0.0043226219,9.7935927402,0.0008057987,0.0000521862,-0.0513740520
558958.7600241631,0.0005790299,-0.0049766567,9.7938833547,0.0000458347,0.0000955887,-0.0522744023
558958.7700241629,0.0008453441,0.0040238903,9.7934274035,0.0005343830,0.0000630368,-0.0529903434
558958.7800241630,-0.0008106427,-0.0028464213,9.7928281816,0.0003932468,0.0000413356,-0.0536628942
558958.7900241630,-0.0002103012,0.0031038657,9.7945034345,0.0001435444,0.0001064393,-0.0550188434
558958.8000241630,-0.0003505149,-0.0019297312,9.7935873427,0.0007623722,0.0000304849,-0.0557239370
558958.8100241630,0.0007089006,0.0002100226,9.7935794381,-0.0000518750,0.0000847381,-0.0565700493
558958.8200241630,0.0019251588,0.0028076352,9.7943330229,0.0009795048,0.0000955887,-0.0576222659
558958.8300241630,-0.0004983192,-0.0034555562,9.7934354041,-0.0001604413,0.0000630368,-0.0582622739
558958.8400241630,-0.0002145516,0.0032566010,9.7940459750,0.0009143650,0.0000630368,-0.0592602525
558958.8500241630,-0.0011054269,-0.0036107231,9.7937454288,0.0000349781,0.0000738874,-0.0601172124
558958.8600241630,-0.0009807957,0.0041686361,9.7940527372,0.0006103794,0.0000630368,-0.0606595921
558958.8700241630,-0.0001919735,-0.0028444063,9.7938906749,0.0004475300,0.0000738874,-0.0618745226
558958.8800241631,-0.0009706534,0.0018806629,9.7942042006,0.0002629673,0.0000738874,-0.0627423301
558958.8900241629,0.0025477344,-0.0010028977,9.7940211845,0.0008275120,0.0000630368,-0.0634908140
558958.9000241630,0.0005618060,-0.0002483917,9.7940380269,-0.0000084485,0.0000738874,-0.0645213354
558958.9100241630,0.0002429097,0.0017335548,9.7932789224,0.0010120747,0.0000630368,-0.0651288007
558958.9200241630,-0.0003451893,-0.0036074578,9.7934340656,-0.0000844449,0.0000847381,-0.0660399985
558958.9300241630,0.0003932370,0.0041741942,9.7941938283,0.0009795048,0.0000630368,-0.0672006911
558958.9400241630,0.0004259574,-0.0042147863,9.7941899917,0.0001652576,0.0000847381,-0.0677973087
558958.9500241630,-0.0005219438,0.0044754269,9.7943540900,0.0006755192,0.0000521862,-0.0687085066
558958.9600241630,-0.0001877517,-0.0033021259,9.7941954852,0.0005343830,0.0000521862,-0.0696088568
558958.9700241630,-0.0017351127,0.0023351173,9.7942107535,0.0002629673,0.0000630368,-0.0703790360
558958.9800241630,0.0007149931,0.0002096754,9.7943419869,0.0009143650,0.0000413356,-0.0714204050
558958.9900241630,0.0002603057,-0.0011648038,9.7940401458,-0.0000301617,0.0000847381,-0.0722990600
558959.0000241630,-0.0003689860,0.0024936189,9.7934368559,0.0011314976,0.0000630368,-0.0729607633
558959.0100241631,-0.0003481639,-0.0028448232,9.7934344144,0.0000458347,0.0000847381,-0.0742516269
558959.0200241629,-0.0015952144,0.0040138858,9.7934477033,0.0009360783,0.0000521862,-0.0747397686
558959.0300241630,0.0008744377,-0.0040598975,9.7931186869,0.0003063938,0.0000521862,-0.0755099478
558959.0400241630,0.0014609240,0.0035686023,9.7938796486,0.0006646626,0.0001064393,-0.0766597927
558959.0500241630,0.0008817487,-0.0040603141,9.7940337455,0.0005886662,0.0000304849,-0.0773757339
558959.0600241630,-0.0005262802,0.0037132089,9.7934386827,0.0004149601,0.0000521862,-0.0784171028
558959.0700241630,0.0002639612,-0.0011650121,9.7944976751,0.0008600819,0.0000521862,-0.0794042339
558959.0800241630,0.0001077994,-0.0008604447,9.7941940638,0.0001869709,0.0000738874,-0.0799249183
558959.0900241630,-0.0017333567,0.0015725521,9.7940578950,0.0011423543,0.0000521862,-0.0806950975
558959.1000241630,-0.0000454451,-0.0019284806,9.7935848052,0.0000024082,0.0000738874,-0.0818123996
558959.1100241630,-0.0008301029,0.0040168733,9.7937463792,0.0011423543,0.0000630368,-0.0824741028
558959.1200241630,-0.0000328945,-0.0045215771,9.7938886389,0.0001652576,0.0000738874,-0.0836239478
558959.1300241631,0.0012987557,0.0047884701,9.7932714364,0.0009252217,0.0000521862,-0.0845026028
558959.1400241629,-0.0004940687,-0.0036082914,9.7938928636,0.0005886662,0.0000738874,-0.0853161724
558959.1500241630,-0.0014420273,0.0044719530,9.7937516634,0.0005235264,0.0000738874,-0.0862599130
558959.1600241630,0.0008788028,-0.0029926951,9.7941867435,0.0009469349,0.0000738874,-0.0870083970
558959.1700241630,0.0005618920,0.0006665615,9.7944959747,0.0001869709,0.0000738874,-0.0878870520
558959.1800241630,0.0005479795,0.0017348054,9.7932763849,0.0012074940,0.0000521862,-0.0890368970
558959.1900241630,-0.0023279998,-0.0020906644,9.7942138056,0.0000892612,0.0000630368,-0.0896660574
558959.2000241630,-0.0009790396,0.0034060710,9.7938998786,0.0012074940,0.0000196343,-0.0907182740
558959.2100241630,0.0008798779,-0.0045176865,9.7935760069,0.0002738239,0.0000955887,-0.0914016724
558959.2200241630,-0.0002218053,0.0038669864,9.7934362149,0.0010229313,0.0000304849,-0.0920091376
558959.2300241630,-0.0007966155,-0.0026947276,9.7946583684,0.0005343830,0.0000847381,-0.0931589825
558959.2400241630,-0.0002061368,0.0020361773,9.7945029462,0.0006212360,0.0000847381,-0.0940376376
558959.2500241630,0.0010240267,-0.0029916532,9.7932704163,0.0009686482,0.0000304849,-0.0947318836
558959.2600241631,0.0007138607,0.0011246981,9.7946474250,0.0002629673,0.0000955887,-0.0958491858
558959.2700241629,-0.0012787552,0.0020320781,9.7939017883,0.0012943471,0.0000304849,-0.0966410601
558959.2800241630,-0.0008014609,-0.0023894655,9.7942009787,0.0001652576,0.0000521862,-0.0974003916
558959.2900241630,0.0003962403,0.0037165440,9.7943461288,0.0012834904,0.0000738874,-0.0984634558
558959.3000241630,-0.0007991959,-0.0042195108,9.7935901026,0.0003063938,0.0000630368,-0.0991034638
558959.3100241630,-0.0005250044,0.0043231083,9.7938964910,0.0010120747,0.0000521862,-0.1000363569
558959.3200241630,-0.0001968475,-0.0028441285,9.7932806359,0.0005886662,0.0000521862,-0.1011536590
558959.3300241630,0.0007012527,0.0031078257,9.7940382928,0.0007623722,0.0000738874,-0.1016092580
558959.3400241630,-0.0005060531,-0.0014727063,9.7934363110,0.0010337880,0.0000521862,-0.1027048649
558959.3500241630,-0.0009695496,0.0006606559,9.7937461133,0.0002846805,0.0000738874,-0.1036811483
558959.3600241630,0.0007078542,0.0020399984,9.7943428240,0.0013920567,0.0000630368,-0.1043320039
558959.3700241640,0.0004157578,-0.0025367819,9.7937332297,0.0001978275,0.0000738874,-0.1056120200
558959.3800241640,-0.0002236474,0.0037145984,9.7931311257,0.0012617772,0.0000630368,-0.1063062660
558959.3900241640,0.0001203213,-0.0037585255,9.7943452482,0.0004800999,0.0000630368,-0.1069137312
558959.4000241640,0.0000802612,0.0043258871,9.7932813770,0.0009903614,0.0000738874,-0.1081937473
558959.4100241640,-0.0009504836,-0.0039152211,9.7938965303,0.0008383686,0.0000521862,-0.1087903649
558959.4200241640,-0.0000638015,0.0037148070,9.7940449155,0.0006429493,0.0000738874,-0.1095605441
558959.4300241640,0.0016355282,-0.0014642996,9.7941810974,0.0011857808,0.0000521862,-0.1105693703
558959.4400241640,-0.0012667708,-0.0001035070,9.7943583410,0.0003606769,0.0000521862,-0.1112310735
558959.4500241640,0.0003979390,0.0023440100,9.7938879717,0.0014137700,0.0000521862,-0.1123483756
558959.4600241639,-0.0001876944,-0.0026921571,9.7945007837,0.0002521106,0.0000847381,-0.1134114398
558959.4700241640,-0.0003803754,0.0044766771,9.7929802334,0.0013594868,0.0000196343,-0.1138887339
558959.4800241640,-0.0007913186,-0.0046774387,9.7943524421,0.0005126697,0.0000738874,-0.1149843409
558959.4900241640,0.0005493414,0.0032596579,9.7941921410,0.0010772145,0.0000738874,-0.1158196056
558959.5000241640,0.0022425785,-0.0019191015,9.7935657742,0.0008817951,0.0000521862,-0.1165680895
558959.5100241640,0.0008514080,0.0037185587,9.7940373031,0.0006755192,0.0000738874,-0.1175769157
558959.5200241640,0.0004151916,-0.0020792706,9.7938859488,0.0012509205,0.0000304849,-0.1182386189
558959.5300241640,0.0005587454,-0.0004007103,9.7935804278,0.0004149601,0.0000738874,-0.1191932072
558959.5400241640,0.0010069748,0.0035665182,9.7943409841,0.0015006230,0.0000630368,-0.1202779665
558959.5500241640,0.0004133208,-0.0025366430,9.7934282102,0.0003606769,0.0000630368,-0.1210047553
558959.5600241640,0.0000911704,0.0037152934,9.7943486663,0.0014029134,0.0000630368,-0.1219593435
558959.5700241640,-0.0003368605,-0.0057428347,9.7934330890,0.0006320927,0.0000630368,-0.1230007125
558959.5800241641,-0.0005243521,0.0047805502,9.7942017198,0.0010555012,0.0000413356,-0.1236081778
558959.5900241639,0.0004146540,-0.0013167749,9.7941913171,0.0010229313,0.0000738874,-0.1246170040
558959.6000241640,0.0002507296,0.0006656581,9.7937359634,0.0006429493,0.0000630368,-0.1254631163
558959.6100241640,0.0004128979,-0.0005542097,9.7943441756,0.0014137700,0.0000521862,-0.1261899050
558959.6200241640,-0.0000549638,0.0005119501,9.7935859213,0.0004909565,0.0000738874,-0.1273939879
558959.6300241640,-0.0003658967,0.0029509219,9.7940471042,0.0014789098,0.0000413356,-0.1280123008
558959.6400241640,0.0017921415,-0.0034463159,9.7937213926,0.0004800999,0.0000738874,-0.1284678997
558959.6500241640,0.0014633610,0.0035684634,9.7941846681,0.0014571965,0.0000413356,-0.1298130013
558959.6600241640,-0.0006489833,-0.0029988090,9.7938944114,0.0006646626,0.0000521862,-0.1306374184
558959.6700241640,0.0006887021,0.0057009222,9.7937344591,0.0011423543,0.0000521862,-0.1316462446
558959.6800241640,-0.0001895938,-0.0034545139,9.7938903959,0.0011532109,0.0000738874,-0.1326008329
558959.6900241640,0.0000885327,0.0015805415,9.7929751019,0.0006972324,0.0000521862,-0.1330130414
558959.7000241640,0.0003948784,0.0021916914,9.7934303727,0.0015440495,0.0000630368,-0.1340544104
558959.7100241639,0.0008697357,-0.0022297133,9.7934245435,0.0004149601,0.0000738874,-0.1350415414
558959.7200241640,0.0011571300,0.0041772511,9.7943399944,0.0016091893,0.0000304849,-0.1357032446
558959.7300241640,0.0005754317,-0.0043664796,9.7937311239,0.0006212360,0.0000630368,-0.1367012232
558959.7400241640,-0.0002247226,0.0052395898,9.7937418623,0.0013269169,0.0000304849,-0.1375798783
558959.7500241640,0.0004181661,-0.0028419052,9.7938856000,0.0010337880,0.0000413356,-0.1384585334
558959.7600241640,-0.0003629221,0.0021882873,9.7940467554,0.0008383686,0.0000738874,-0.1393697313
558959.7700241640,0.0004128119,-0.0014691629,9.7938862278,0.0015440495,0.0000413356,-0.1400748249
558959.7800241640,0.0010164361,0.0005161187,9.7940345694,0.0004583866,0.0000630368,-0.1409534799
558959.7900241640,-0.0000583612,0.0032570179,9.7945022355,0.0016634725,0.0000196343,-0.1421358676
558959.8000241640,0.0001196117,-0.0048259362,9.7937347209,0.0006103794,0.0000738874,-0.1428735040
558959.8100241640,0.0009967465,0.0049395382,9.7937315729,0.0015006230,0.0000413356,-0.1438931778
558959.8200241640,-0.0000400335,-0.0026912541,9.7938894760,0.0009469349,0.0000738874,-0.1448152233
558959.8300241641,-0.0002181785,0.0035617937,9.7937410950,0.0010663578,0.0000413356,-0.1454118409
558959.8400241639,0.0008722014,-0.0019248678,9.7938822123,0.0013594868,0.0000521862,-0.1464423623
558959.8500241640,-0.0005071569,-0.0002526992,9.7938943983,0.0006755192,0.0000738874,-0.1471799987
558959.8600241640,-0.0002152326,0.0024941747,9.7935880969,0.0016960423,0.0000304849,-0.1478742447
558959.8700241640,0.0014805276,-0.0017697704,9.7937246974,0.0005886662,0.0000521862,-0.1489373088
558959.8800241640,-0.0003647069,0.0026458680,9.7940469647,0.0016309026,0.0000304849,-0.1498051163
558959.8900241640,0.0005784636,-0.0045191454,9.7940360737,0.0007732289,0.0000521862,-0.1505644479
558959.9000241640,0.0000840314,0.0055456164,9.7943495033,0.0014680531,0.0000304849,-0.1517576832
558959.9100241640,0.0016348472,-0.0022267258,9.7937232194,0.0010120747,0.0000738874,-0.1524410816
558959.9200241640,0.0005492841,0.0026496891,9.7938868425,0.0011314976,0.0000304849,-0.1533522794
558959.9300241640,0.0001093835,-0.0034529162,9.7931253097,0.0013920567,0.0000521862,-0.1543285628
558959.9400241640,0.0000976285,0.0011225441,9.7938899511,0.0008600819,0.0000630368,-0.1547516190
558959.9500241640,0.0026842065,0.0031159543,9.7940217992,0.0017394689,0.0000630368,-0.1558038356
558959.9600241639,0.0001100644,-0.0026904899,9.7935831877,0.0005886662,0.0000413356,-0.1569645281
558959.9700241640,-0.0000608269,0.0029521724,9.7940445667,0.0017828954,0.0000087837,-0.1575936885
558959.9800241640,0.0008805302,-0.0040602447,9.7938812357,0.0008492253,0.0000630368,-0.1588086190
558959.9900241640,0.0006827243,0.0069212070,9.7935825074,0.0013703435,0.0000413356,-0.1595245602
558960.0000241640,-0.0001931920,-0.0028443368,9.7937381652,0.0013486302,0.0000521862,-0.1601754158
558960.0100241640,0.0011695946,0.0006692014,9.7941858802,0.0009252217,0.0000630368,-0.1615530602
558960.0200241640,0.0008705313,-0.0002473495,9.7944930187,0.0018154653,0.0000304849,-0.1619327260
558960.0300241640,0.0014710663,0.0012806291,9.7940311120,0.0006863758,0.0000847381,-0.1628330762
558960.0400241640,0.0003877394,0.0040220144,9.7934312098,0.0018263219,0.0000304849,-0.1638852928
558960.0500241640,0.0004288173,-0.0061973585,9.7935790458,0.0007515156,0.0000413356,-0.1644276725
558960.0600241640,0.0000821607,0.0050882440,9.7938917648,0.0017177556,0.0000196343,-0.1654039559
558960.0700241640,0.0004145106,-0.0028416968,9.7934280707,0.0010663578,0.0000521862,-0.1663043062
558960.0800241641,0.0008526551,0.0040234736,9.7943424621,0.0012726338,0.0000521862,-0.1669334666
558960.0900241639,0.0004139157,-0.0026891699,9.7934281405,0.0015440495,0.0000521862,-0.1681700923
558960.1000241640,0.0016253572,0.0005186892,9.7938769847,0.0009035084,0.0000738874,-0.1690704425
558960.1100241640,0.0008513219,0.0028036055,9.7935793553,0.0018697484,0.0000304849,-0.1698406217
558960.1200241640,0.0004176286,-0.0020794094,9.7941909683,0.0006646626,0.0000630368,-0.1708602955
558960.1300241640,0.0016158959,0.0035690887,9.7941833994,0.0018697484,0.0000304849,-0.1715545415
558960.1400241640,-0.0000322422,-0.0040641352,9.7941938677,0.0010229313,0.0000304849,-0.1724982821
558960.1500241640,0.0002347529,0.0056988380,9.7941957946,0.0015440495,0.0000413356,-0.1736155843
558960.1600241640,0.0002596247,-0.0019272301,9.7935822678,0.0013812001,0.0000196343,-0.1741471163
558960.1700241640,0.0008639872,0.0014304466,9.7944937860,0.0011314976,0.0000738874,-0.1750691618
558960.1800241640,0.0007179104,-0.0011629280,9.7940363396,0.0017828954,0.0000304849,-0.1756874746
558960.1900241640,-0.0014205529,-0.0004090472,9.7940544507,0.0008383686,0.0000630368,-0.1754271324
558960.2000241640,0.0000952775,0.0020376362,9.7940428794,0.0019240316,0.0000521862,-0.1749281431
558960.2100241639,-0.0007913760,-0.0052874075,9.7940471435,0.0008057987,0.0000521862,-0.1744400014
558960.2200241640,-0.0003616750,0.0024932022,9.7943519144,0.0018806050,0.0000413356,-0.1741796591
558960.2300241640,-0.0006478221,-0.0036088472,9.7937416226,0.0010012181,0.0000521862,-0.1740820308
558960.2400241640,0.0000857588,0.0044780669,9.7940439955,0.0014897664,0.0000521862,-0.1740711832
558960.2500241640,0.0001190168,-0.0046734093,9.7937347906,0.0014029134,0.0000413356,-0.1741579639
558960.2600241640,0.0002573597,-0.0000971848,9.7941931439,0.0010555012,0.0000521862,-0.1742555923
558960.2700241640,0.0000951915,0.0011226830,9.7935849316,0.0018806050,0.0000087837,-0.1742881351
558960.2800241640,0.0001053624,-0.0008603058,9.7938890443,0.0007623722,0.0000521862,-0.1742772875
558960.2900241640,0.0000928692,0.0023427595,9.7938905092,0.0019240316,0.0000521862,-0.1742013543
558960.3000241640,-0.0001819459,-0.0063523170,9.7934315413,0.0008926518,0.0000738874,-0.1742122019
558960.3100241640,-0.0008349769,0.0040171511,9.7931363401,0.0016743291,0.0000304849,-0.1742447447
558960.3200241640,-0.0001943818,-0.0025392830,9.7937383047,0.0011749241,0.0000413356,-0.1742447447
558960.3300241641,0.0010099207,0.0024988992,9.7941879860,0.0013052037,0.0000413356,-0.1742230495
558960.3400241639,0.0013375113,-0.0042108263,9.7937248500,0.0016417592,0.0000521862,-0.1742447447
558960.3500241640,-0.0006656983,0.0006619759,9.7935910660,0.0009686482,0.0000521862,-0.1742881351
558960.3600241640,-0.0006704003,0.0024921600,9.7938969226,0.0018263219,0.0000304849,-0.1742881351
558960.3700241640,-0.0003420714,-0.0028451704,9.7941969632,0.0008057987,0.0000304849,-0.1742881351
558960.3800241640,0.0008633063,0.0006680203,9.7940359079,0.0018806050,0.0000413356,-0.1743315254
558960.3900241640,0.0002637605,-0.0032999029,9.7934291302,0.0008709385,0.0000413356,-0.1743532206
558960.4000241640,-0.0006829509,0.0050852565,9.7935930890,0.0018263219,0.0000196343,-0.1743098303
558960.4100241640,0.0005760553,-0.0042140221,9.7938837035,0.0010555012,0.0000738874,-0.1743098303
558960.4200241640,0.0007047362,0.0012777110,9.7935799264,0.0014897664,0.0000413356,-0.1743206778
558960.4300241640,0.0010349359,-0.0036022470,9.7943377055,0.0014897664,0.0000413356,-0.1743315254
558960.4400241650,-0.0006703716,0.0027971444,9.7940495719,0.0010012181,0.0000521862,-0.1743423730
558960.4500241650,-0.0006711386,0.0011197649,9.7931337460,0.0018371785,0.0000087837,-0.1743315254
558960.4600241650,-0.0006436004,-0.0040665669,9.7940464329,0.0007840855,0.0000521862,-0.1742989827
558960.4700241650,0.0002495972,0.0015806807,9.7940414014,0.0019023183,0.0000196343,-0.1743206778
558960.4800241650,-0.0000406858,-0.0031486959,9.7935842472,0.0009252217,0.0000738874,-0.1743098303
558960.4900241650,-0.0009862073,0.0049314096,9.7937480664,0.0016743291,0.0000304849,-0.1743423730
558960.5000241650,0.0001231812,-0.0057410977,9.7937343023,0.0011423543,0.0000413356,-0.1743966110
558960.5100241650,-0.0005154857,0.0018826776,9.7938953749,0.0013812001,0.0000413356,-0.1743857634
558960.5200241650,0.0005671316,-0.0019261184,9.7938847498,0.0015006230,0.0000413356,-0.1743857634
558960.5300241651,0.0002483500,0.0012757658,9.7937362424,0.0010229313,0.0000738874,-0.1743640682
558960.5400241649,-0.0006561223,-0.0011684860,9.7938952485,0.0018263219,0.0000413356,-0.1743857634
558960.5500241650,-0.0000358117,-0.0031489737,9.7941942862,0.0008383686,0.0000304849,-0.1743857634
558960.5600241650,-0.0000650487,0.0034098921,9.7937397565,0.0019240316,0.0000304849,-0.1743640682
558960.5700241650,-0.0006465750,-0.0033039323,9.7940467816,0.0008275120,0.0000738874,-0.1743640682
558960.5800241650,-0.0005208973,0.0026454511,9.7935907041,0.0017503255,0.0000413356,-0.1743315254
558960.5900241650,-0.0004851450,-0.0058961952,9.7938918173,0.0011097844,0.0000304849,-0.1743532206
558960.6000241650,0.0006940277,0.0040231955,9.7935811820,0.0013812001,0.0000413356,-0.1743532206
558960.6100241650,0.0004181948,-0.0025369208,9.7940382493,0.0015874761,0.0000304849,-0.1742989827
558960.6200241650,-0.0011215183,0.0002025193,9.7935946630,0.0009469349,0.0000413356,-0.1743857634
558960.6300241650,-0.0014235848,-0.0002563815,9.7937495009,0.0018914617,0.0000304849,-0.1743966110
558960.6400241650,-0.0012554674,-0.0030015184,9.7943570156,0.0007732289,0.0000413356,-0.1744508490
558960.6500241651,0.0002400498,0.0037161270,9.7938898683,0.0018806050,0.0000196343,-0.1744508490
558960.6600241649,0.0008791683,-0.0055850972,9.7929654796,0.0009252217,0.0000521862,-0.1744291538
558960.6700241650,-0.0006734036,0.0029498102,9.7937446221,0.0016634725,0.0000304849,-0.1744074586
558960.6800241650,-0.0004862201,-0.0043712037,9.7945025539,0.0012834904,0.0000413356,-0.1743749158
558960.6900241650,-0.0002151466,0.0034091279,9.7940460447,0.0012834904,0.0000413356,-0.1743640682
558960.7000241650,0.0004176286,-0.0020794094,9.7941909683,0.0016634725,0.0000413356,-0.1743966110
558960.7100241650,-0.0008056540,-0.0016267615,9.7940488177,0.0008057987,0.0000413356,-0.1744183062
558960.7200241650,-0.0003575966,0.0005105606,9.7938934783,0.0019674581,0.0000196343,-0.1743532206
558960.7300241650,-0.0007973251,-0.0037621383,9.7940478411,0.0008057987,0.0000196343,-0.1744400014
558960.7400241650,-0.0000661525,0.0046298991,9.7941978438,0.0018480352,0.0000304849,-0.1744074586
558960.7500241650,0.0004246816,-0.0048246856,9.7937321834,0.0010012181,0.0000521862,-0.1744616966
558960.7600241650,-0.0014318277,0.0027939486,9.7942084253,0.0015440495,0.0000304849,-0.1744183062
558960.7700241650,-0.0001835873,-0.0043698143,9.7941949969,0.0013812001,0.0000304849,-0.1743966110
558960.7800241651,0.0010123291,0.0021937759,9.7943403563,0.0011749241,0.0000521862,-0.1744400014
558960.7900241649,-0.0001997934,-0.0017765095,9.7934336340,0.0016417592,0.0000521862,-0.1744074586
558960.8000241650,-0.0006500871,-0.0017788020,9.7943524987,0.0009577916,0.0000521862,-0.1744400014
558960.8100241650,-0.0009707681,0.0006607253,9.7935936035,0.0018480352,-0.0000020669,-0.1744616966
558960.8200241650,-0.0000430368,-0.0022336039,9.7937371755,0.0008600819,0.0000521862,-0.1744616966
558960.8300241650,0.0003979390,0.0023440100,9.7938879717,0.0018697484,0.0000304849,-0.1744291538
558960.8400241650,-0.0004923127,-0.0043708566,9.7937400051,0.0009143650,0.0000521862,-0.1742555923
558960.8500241650,0.0002399351,0.0024961894,9.7932792712,0.0017068990,0.0000304849,-0.1742555923
558960.8600241650,-0.0004947210,-0.0040657333,9.7935876349,0.0011423543,0.0000521862,-0.1743966110
558960.8700241650,0.0000935788,0.0034101701,9.7945010365,0.0014029134,0.0000196343,-0.1744400014
558960.8800241650,0.0001226437,-0.0049786020,9.7940396706,0.0015223363,0.0000413356,-0.1744183062
558960.8900241650,0.0005570180,0.0006668392,9.7938859357,0.0011097844,0.0000521862,-0.1744074586
558960.9000241651,0.0000975711,0.0005125753,9.7935846526,0.0017286122,0.0000196343,-0.1744291538
558960.9100241649,0.0004152489,-0.0014693018,9.7941912473,0.0008383686,0.0000413356,-0.1744508490
558960.9200241650,-0.0002110968,0.0011215019,9.7934349593,0.0019131749,0.0000304849,-0.1744508490
558960.9300241650,0.0010311943,-0.0045169918,9.7934222285,0.0008492253,0.0000413356,-0.1744074586
558960.9400241650,0.0016062626,0.0047895818,9.7935739184,0.0018154653,0.0000304849,-0.1744508490
558960.9500241650,-0.0009451294,-0.0052879633,9.7938959025,0.0011097844,0.0000413356,-0.1744833917
558960.9600241650,-0.0002031622,0.0012735427,9.7945025974,0.0013594868,0.0000413356,-0.1744942393
558960.9700241650,0.0008757709,-0.0028400293,9.7938817938,0.0016417592,0.0000413356,-0.1744725442
558960.9800241650,0.0008584609,0.0009732825,9.7935785182,0.0008600819,0.0000738874,-0.1744833917
558960.9900241650,-0.0017346038,0.0012676372,9.7937527360,0.0018914617,0.0000087837,-0.1744616966
558961.0000241650,-0.0006424679,-0.0049815895,9.7937409948,0.0008383686,0.0000521862,-0.1744400014
558961.0100241650,0.0002465366,0.0014283621,9.7935838024,0.0019023183,0.0000304849,-0.1746786484
558961.0200241650,0.0005724858,-0.0032988606,9.7938841220,0.0009686482,0.0000413356,-0.1743749158
558961.0300241651,0.0002352905,0.0049363423,9.7938904263,0.0016091893,0.0000304849,-0.1744183062
558961.0400241649,-0.0009384993,-0.0060508062,9.7943530830,0.0012292073,0.0000521862,-0.1744508490
558961.0500241650,0.0001012840,0.0011223358,9.7943474804,0.0013269169,0.0000304849,-0.1744508490
558961.0600241650,-0.0005036161,-0.0014728451,9.7937413305,0.0016309026,0.0000196343,-0.1744725442
558961.0700241650,-0.0001995640,0.0006633656,9.7946548281,0.0009143650,0.0000413356,-0.1744725442
558961.0800241650,-0.0005066193,-0.0010151949,9.7935890300,0.0019240316,0.0000304849,-0.1745050869
558961.0900241650,-0.0004911228,-0.0046759104,9.7937398656,0.0007840855,0.0000738874,-0.1745484773
558961.1000241650,0.0000815084,0.0046308021,9.7935865360,0.0019131749,0.0000413356,-0.1745050869
558961.1100241650,0.0011885459,-0.0051266131,9.7937257002,0.0009252217,0.0000413356,-0.1744616966
558961.1200241650,-0.0006685295,0.0029495324,9.7943546612,0.0015331929,0.0000196343,-0.1744616966
558961.1300241650,-0.0021599970,-0.0060557390,9.7942107232,0.0014137700,0.0000196343,-0.1744400014
558961.1400241650,-0.0006680206,0.0018820523,9.7938966436,0.0011423543,0.0000196343,-0.1744291538
558961.1500241651,0.0008639012,0.0005154934,9.7940358382,0.0017611821,0.0000413356,-0.1743749158
558961.1600241649,0.0005676978,-0.0023836297,9.7937320308,0.0008383686,0.0000521862,-0.1743966110
558961.1700241650,-0.0006669168,0.0006620453,9.7934385563,0.0019240316,0.0000196343,-0.1744074586
558961.1800241650,0.0004229541,-0.0037571361,9.7940376912,0.0008057987,0.0000738874,-0.1744616966
558961.1900241650,-0.0000709405,0.0055451300,9.7940457526,0.0017828954,0.0000087837,-0.1744616966
558961.2000241650,-0.0003295495,-0.0057432513,9.7943481476,0.0010446446,0.0000521862,-0.1744833917
558961.2100241650,-0.0002116344,0.0018839976,9.7937403276,0.0014680531,0.0000304849,-0.1744942393
558961.2200241650,-0.0003421861,-0.0040651080,9.7935863661,0.0015549062,0.0000196343,-0.1745267821
558961.2300241650,-0.0009676502,0.0014230127,9.7943565011,0.0010012181,0.0000521862,-0.1745159345
558961.2400241650,-0.0006632326,0.0009668214,9.7940487348,0.0018697484,0.0000304849,-0.1744942393
558961.2500241650,0.0001153326,-0.0049781854,9.7931246121,0.0007080891,0.0000738874,-0.1745376297
558961.2600241650,0.0008525118,0.0024985516,9.7935792157,0.0019566015,0.0000087837,-0.1745050869
558961.2700241650,-0.0003392402,-0.0051327270,9.7934333681,0.0009577916,0.0000413356,-0.1744400014
558961.2800241651,-0.0006787291,0.0046275368,9.7938978992,0.0015766194,0.0000304849,-0.1744725442
558961.2900241649,-0.0009439395,-0.0055930172,9.7938957630,0.0013269169,0.0000521862,-0.1744508490
558961.3000241650,-0.0005053435,-0.0004052956,9.7940468383,0.0012074940,0.0000196343,-0.1744400014
558961.3100241650,0.0005598779,-0.0013157330,9.7932749898,0.0016960423,0.0000087837,-0.1744725442
558961.3200241650,-0.0008115458,0.0005084765,9.7943548138,0.0008709385,0.0000738874,-0.1745050869
558961.3300241650,0.0001024165,0.0002073132,9.7940420424,0.0018806050,-0.0000020669,-0.1745376297
558961.3400241650,-0.0003325814,-0.0055905855,9.7940431978,0.0008383686,0.0000738874,-0.1745376297
558961.3500241650,0.0003925561,0.0034117679,9.7937359502,0.0019023183,0.0000087837,-0.1744942393
558961.3600241650,-0.0004959395,-0.0040656638,9.7934351251,0.0009469349,0.0000413356,-0.1744833917
558961.3700241650,-0.0006715901,0.0027972138,9.7938970621,0.0015657628,0.0000413356,-0.1744616966
558961.3800241650,0.0002781245,-0.0060455957,9.7938854038,0.0013052037,0.0000304849,-0.1744725442
558961.3900241650,-0.0000638875,0.0027998538,9.7935869677,0.0012292073,0.0000196343,-0.1745159345
558961.4000241651,-0.0017292496,-0.0001051051,9.7937521082,0.0016960423,0.0000304849,-0.1744725442
558961.4100241649,0.0004188471,-0.0020794789,9.7943434781,0.0008709385,0.0000413356,-0.1744291538
558961.4200241650,-0.0008128790,-0.0007113917,9.7935917070,0.0019348882,0.0000196343,-0.1743966110
558961.4300241650,-0.0004916891,-0.0042183991,9.7938925846,0.0008275120,0.0000413356,-0.1743640682
558961.4400241650,0.0000821320,0.0047832596,9.7937391155,0.0018263219,0.0000196343,-0.1744508490
558961.4500241650,-0.0006400596,-0.0052867128,9.7938933651,0.0009577916,0.0000304849,-0.1744400014
558961.4600241650,-0.0011280337,0.0021852998,9.7937480796,0.0015006230,0.0000304849,-0.1744074586
558961.4700241650,-0.0004916891,-0.0042183991,9.7938925846,0.0015657628,0.0000196343,-0.1744616966
558961.4800241650,0.0002447518,0.0018859429,9.7935840117,0.0009795048,0.0000521862,-0.1744942393
558961.4900241650,0.0013239430,0.0005172304,9.7943370515,0.0019023183,0.0000087837,-0.1745376297
558961.5000241650,-0.0009482186,-0.0057452663,9.7932856542,0.0007406590,0.0000521862,-0.1745701725
558961.5100241660,-0.0008296513,0.0023394244,9.7929830631,0.0019240316,0.0000304849,-0.1745376297
558961.5200241660,0.0005736756,-0.0036039145,9.7938839825,0.0009577916,0.0000304849,-0.1745810201
558961.5300241660,0.0000820173,0.0035633220,9.7931285184,0.0015549062,0.0000196343,-0.1745484773
558961.5400241660,-0.0017132729,-0.0051382850,9.7932922769,0.0013594868,0.0000413356,-0.1745050869
558961.5500241660,-0.0006613905,0.0011192094,9.7943538241,0.0012074940,0.0000304849,-0.1744725442
558961.5600241660,0.0005605588,-0.0005533067,9.7937328678,0.0017286122,0.0000196343,-0.1744725442
558961.5700241660,0.0001053051,-0.0014702746,9.7935837458,0.0008275120,0.0000304849,-0.1744400014
558961.5800241660,-0.0011166156,0.0005072259,9.7943573513,0.0019674581,-0.0000237682,-0.1744616966
558961.5900241660,-0.0007913473,-0.0049824231,9.7941997928,0.0007732289,0.0000738874,-0.1744291538
558961.6000241661,0.0002383511,0.0050886609,9.7943480253,0.0018480352,0.0000304849,-0.1744942393
558961.6100241659,-0.0004935885,-0.0049807559,9.7932821968,0.0010555012,0.0000196343,-0.1744942393
558961.6200241660,0.0000976285,0.0011225441,9.7938899511,0.0014137700,0.0000196343,-0.1744942393
558961.6300241660,0.0002685485,-0.0042151338,9.7935812214,0.0015874761,0.0000087837,-0.1745267821
558961.6400241660,0.0002520055,0.0012755575,9.7941937717,0.0009577916,0.0000521862,-0.1745159345
558961.6500241660,-0.0011244642,0.0012701383,9.7937476610,0.0018697484,0.0000196343,-0.1745159345
558961.6600241660,-0.0017138391,-0.0046807737,9.7934449960,0.0007515156,0.0000196343,-0.1745376297
558961.6700241660,0.0008627687,0.0014305160,9.7943412762,0.0019348882,0.0000196343,-0.1744942393
558961.6800241660,-0.0006448762,-0.0046764662,9.7935886246,0.0009577916,0.0000304849,-0.1744942393
558961.6900241660,-0.0005267891,0.0047806890,9.7938967002,0.0016309026,0.0000196343,-0.1744508490
558961.7000241660,-0.0003337999,-0.0055905161,9.7938906881,0.0013052037,0.0000304849,-0.1744616966
558961.7100241660,-0.0006638562,0.0008143639,9.7938961553,0.0011749241,0.0000196343,-0.1744616966
558961.7200241660,0.0005701348,-0.0023837686,9.7940370503,0.0017286122,-0.0000020669,-0.1744508490
558961.7300241661,-0.0003552169,-0.0000995470,9.7938931993,0.0008709385,0.0000738874,-0.1744616966
558961.7400241659,-0.0002134765,0.0017316096,9.7934352384,0.0019674581,0.0000196343,-0.1744942393
558961.7500241660,-0.0012508515,-0.0057466558,9.7935932112,0.0008057987,0.0000196343,-0.1745050869
558961.7600241660,-0.0003707421,0.0032561840,9.7935897144,0.0018263219,0.0000196343,-0.1745701725
558961.7700241660,0.0008865080,-0.0052805294,9.7940331874,0.0010337880,0.0000304849,-0.1745701725
558961.7800241660,-0.0005184030,0.0032552810,9.7942010222,0.0014463399,0.0000304849,-0.1745376297
558961.7900241660,-0.0009499461,-0.0046777168,9.7935911620,0.0015006230,0.0000304849,-0.1744942393
558961.8000241660,-0.0005095652,0.0000524240,9.7937420280,0.0010012181,0.0000304849,-0.1745267821
558961.8100241660,-0.0000501471,-0.0000982965,9.7938906618,0.0019566015,0.0000087837,-0.1745050869
558961.8200241660,-0.0009528633,-0.0033051134,9.7938968094,0.0007189457,0.0000738874,-0.1745050869
558961.8300241660,-0.0006709665,0.0029496713,9.7940496417,0.0019023183,0.0000087837,-0.1744183062
558961.8400241660,-0.0006359238,-0.0066593856,9.7937402275,0.0009577916,0.0000196343,-0.1744942393
558961.8500241661,0.0008477811,0.0040237514,9.7937324231,0.0015549062,0.0000196343,-0.1745050869
558961.8600241659,0.0010330651,-0.0040596194,9.7938799670,0.0014137700,0.0000304849,-0.1744616966
558961.8700241660,-0.0009641094,0.0002028668,9.7942034333,0.0011314976,0.0000304849,-0.1744942393
558961.8800241660,-0.0008050304,-0.0014743040,9.7942013972,0.0018046086,0.0000196343,-0.1744942393
558961.8900241660,0.0001137486,-0.0023857138,9.7941933663,0.0008492253,0.0000196343,-0.1745050869
558961.9000241660,-0.0002146950,0.0017316790,9.7932827286,0.0019131749,0.0000196343,-0.1742989827
558961.9100241660,-0.0006352142,-0.0055919749,9.7943507548,0.0008383686,0.0000521862,-0.1743857634
558961.9200241660,-0.0009808817,0.0032536829,9.7935947894,0.0017828954,-0.0000020669,-0.1745050869
558961.9300241660,-0.0000335181,-0.0046740346,9.7937360594,0.0011206410,0.0000196343,-0.1745593249
558961.9400241660,0.0003949070,0.0024966758,9.7935830220,0.0014789098,0.0000196343,-0.1745701725
558961.9500241660,0.0001190742,-0.0040634405,9.7940400892,0.0014789098,0.0000304849,-0.1745701725
558961.9600241660,-0.0011178341,0.0005072954,9.7942048415,0.0010663578,0.0000413356,-0.1745484773
558961.9700241660,-0.0009648476,-0.0011695282,9.7934402567,0.0017828954,0.0000087837,-0.1744942393
558961.9800241661,0.0007232360,-0.0028406546,9.7938830625,0.0007949421,0.0000304849,-0.1744833917
558961.9900241659,-0.0002050330,0.0008161703,9.7940448589,0.0019674581,0.0000087837,-0.1744183062
558962.0000241660,-0.0017048007,-0.0057487399,9.7940545467,0.0008383686,0.0000521862,-0.1744508490
558962.0100241660,-0.0006811375,0.0049326601,9.7937455290,0.0018046086,-0.0000020669,-0.1747328864
558962.0200241660,0.0001214252,-0.0049785326,9.7938871609,0.0011314976,0.0000413356,-0.1744833917
558962.0300241660,-0.0008175810,0.0011187925,9.7938975636,0.0013594868,0.0000196343,-0.1745050869
558962.0400241660,-0.0011042084,-0.0036107925,9.7938979386,0.0015549062,0.0000087837,-0.1745050869
558962.0500241660,-0.0000543115,0.0009693919,9.7938911501,0.0010120747,0.0000521862,-0.1745159345
558962.0600241660,0.0002537042,-0.0000969765,9.7937356146,0.0017937520,0.0000196343,-0.1745159345
558962.0700241660,-0.0003385306,-0.0040653163,9.7940438954,0.0008600819,0.0000196343,-0.1745159345
558962.0800241660,-0.0006686729,0.0014246105,9.7935914148,0.0019783147,-0.0000020669,-0.1745701725
558962.0900241660,-0.0014118012,-0.0045268574,9.7931375087,0.0008383686,0.0000521862,-0.1745159345
558962.1000241661,0.0006963787,0.0031081035,9.7934282537,0.0017503255,0.0000413356,-0.1745376297
558962.1100241659,-0.0004882056,-0.0060485138,9.7934342183,0.0011314976,0.0000196343,-0.1745376297
558962.1200241660,-0.0017339516,0.0017250790,9.7940579648,0.0013703435,0.0000196343,-0.1745267821
558962.1300241660,-0.0012591229,-0.0030013101,9.7938994863,0.0015766194,0.0000196343,-0.1744616966
558962.1400241660,-0.0006621001,0.0000517988,9.7937432968,0.0009795048,0.0000304849,-0.1744291538
558962.1500241660,0.0002566215,-0.0014695799,9.7934299673,0.0018806050,0.0000413356,-0.1744183062
558962.1600241660,-0.0000328945,-0.0045215771,9.7938886389,0.0007732289,0.0000196343,-0.1744725442
558962.1700241660,-0.0008271283,0.0032542387,9.7937460304,0.0019240316,-0.0000020669,-0.1744508490
558962.1800241660,0.0001219627,-0.0057410283,9.7935817926,0.0009143650,0.0000413356,-0.1745159345
558962.1900241660,0.0005450623,0.0031074088,9.7935820322,0.0016200459,0.0000196343,-0.1744833917
558962.2000241660,-0.0006370563,-0.0057443630,9.7940456655,0.0013269169,0.0000196343,-0.1744942393
558962.2100241660,-0.0015808217,0.0015731774,9.7940566263,0.0012183507,0.0000196343,-0.1744508490
558962.2200241660,0.0001095555,-0.0016230098,9.7940412053,0.0017286122,0.0000087837,-0.1745050869
558962.2300241661,0.0010235751,-0.0013142043,9.7940337324,0.0008600819,0.0000738874,-0.1744725442
558962.2400241659,-0.0005108124,-0.0002524909,9.7934368690,0.0019023183,0.0000196343,-0.1744833917
558962.2500241660,-0.0004899330,-0.0049809642,9.7937397261,0.0007840855,0.0000304849,-0.1744616966
558962.2600241660,-0.0000607982,0.0032571568,9.7941972160,0.0018480352,0.0000087837,-0.1745050869
558962.2700241660,0.0004294409,-0.0060449010,9.7937316254,0.0010229313,0.0000304849,-0.1744725442
558962.2800241660,-0.0005148908,0.0017301507,9.7938953051,0.0015549062,0.0000304849,-0.1744942393
558962.2900241660,-0.0020182567,-0.0042245824,9.7937527622,0.0013594868,0.0000087837,-0.1745267821
558962.3000241660,-0.0020432718,0.0018765637,9.7936030427,0.0012074940,0.0000196343,-0.1744942393
558962.3100241660,0.0002614381,-0.0020798264,9.7937347078,0.0016634725,-0.0000020669,-0.1744833917
558962.3200241660,0.0002608146,-0.0022322839,9.7935821282,0.0008600819,0.0000521862,-0.1745050869
558962.3300241660,-0.0003575966,0.0005105606,9.7938934783,0.0019674581,0.0000087837,-0.1744833917
558962.3400241660,-0.0017053669,-0.0052912286,9.7942072657,0.0008057987,0.0000304849,-0.1745376297
558962.3500241661,0.0000880812,0.0032579904,9.7937384180,0.0018480352,0.0000196343,-0.1745484773
558962.3600241659,0.0024130183,-0.0058843149,9.7938677113,0.0010120747,0.0000413356,-0.1745484773
558962.3700241660,-0.0006727513,0.0034072521,9.7940498509,0.0015331929,0.0000196343,-0.1745050869
558962.3800241660,-0.0020086520,-0.0057500599,9.7942095939,0.0014029134,0.0000087837,-0.1745484773
558962.3900241660,-0.0012715875,0.0005067395,9.7940536005,0.0010989277,0.0000304849,-0.1745159345
558962.4000241660,0.0011821165,-0.0022288794,9.7943370646,0.0018154653,0.0000196343,-0.1744291538
558962.4100241660,0.0005682927,-0.0025361566,9.7937319610,0.0008600819,0.0000521862,-0.1743857634
558962.4200241660,-0.0024966835,0.0011119839,9.7937590099,0.0019240316,0.0000196343,-0.1744616966
558962.4300241660,-0.0014015156,-0.0052899086,9.7940522185,0.0008275120,0.0000304849,-0.1744616966
558962.4400241660,0.0011563918,0.0028048560,9.7935768178,0.0018046086,0.0000087837,-0.1744942393
558962.4500241660,0.0008852895,-0.0052804600,9.7938806777,0.0010337880,0.0000413356,-0.1745159345
558962.4600241660,-0.0015886130,0.0029460585,9.7937522346,0.0015331929,0.0000087837,-0.1745593249
558962.4700241660,-0.0006364327,-0.0055919055,9.7941982451,0.0013812001,0.0000087837,-0.1745267821
558962.4800241661,0.0008603030,0.0011256705,9.7938836074,0.0011857808,0.0000413356,-0.1744942393
558962.4900241659,0.0004139157,-0.0026891699,9.7934281405,0.0017503255,0.0000196343,-0.1744291538
558962.5000241660,-0.0008033316,-0.0028468379,9.7937432401,0.0008600819,0.0000521862,-0.1745376297
558962.5100241660,-0.0006674831,0.0011195566,9.7935912753,0.0019566015,0.0000087837,-0.1745159345
558962.5200241660,0.0004289320,-0.0049774209,9.7941896429,0.0007949421,0.0000413356,-0.1745484773
558962.5300241660,0.0007078542,0.0020399984,9.7943428240,0.0018154653,-0.0000020669,-0.1745050869
558962.5400241660,-0.0007872115,-0.0063550959,9.7940466553,0.0010880711,0.0000738874,-0.1744725442
558962.5500241660,-0.0005172418,0.0026452428,9.7940482334,0.0015223363,0.0000087837,-0.1744833917
558962.5600241660,-0.0004916604,-0.0039134147,9.7940452339,0.0013920567,0.0000196343,-0.1745267821
558962.5700241660,-0.0003551596,0.0005104218,9.7941984978,0.0011423543,0.0000304849,-0.1745267821
558962.5800241660,-0.0003432899,-0.0028451010,9.7940444534,0.0017394689,0.0000196343,-0.1744942393
558962.5900241670,-0.0020295887,-0.0016315554,9.7936014383,0.0008817951,0.0000304849,-0.1745484773
558962.6000241670,-0.0009677649,0.0002030751,9.7937459040,0.0019131749,0.0000087837,-0.1745050869
558962.6100241670,-0.0003301731,-0.0058957088,9.7941955681,0.0008275120,0.0000196343,-0.1745267821
558962.6200241670,0.0010020721,0.0032618115,9.7935782958,0.0019023183,0.0000413356,-0.1745159345
558962.6300241670,-0.0003307966,-0.0060481662,9.7940429886,0.0009577916,0.0000413356,-0.1745701725
558962.6400241670,-0.0011285713,0.0029477955,9.7940534479,0.0015223363,-0.0000020669,-0.1745593249
558962.6500241670,0.0008847233,-0.0048229487,9.7940333967,0.0013920567,0.0000087837,-0.1745593249
558962.6600241670,-0.0002044381,0.0006636434,9.7940447891,0.0011749241,0.0000413356,-0.1744833917
558962.6700241670,-0.0006555561,-0.0016259973,9.7937425294,0.0017394689,-0.0000129176,-0.1744725442
558962.6800241671,-0.0017179748,-0.0033081009,9.7935981335,0.0009143650,0.0000521862,-0.1744616966
558962.6900241670,-0.0002074987,0.0005113248,9.7935871901,0.0019348882,0.0000087837,-0.1744508490
558962.7000241670,-0.0000347366,-0.0046739651,9.7935835496,0.0007623722,0.0000304849,-0.1744616966
558962.7100241670,0.0000916793,0.0026478133,9.7938906487,0.0018480352,0.0000196343,-0.1744616966
558962.7200241670,-0.0007866166,-0.0065076228,9.7940465855,0.0010120747,0.0000413356,-0.1744833917
558962.7300241670,0.0000874289,0.0028005485,9.7934331892,0.0015331929,0.0000196343,-0.1744942393
558962.7400241670,-0.0001908984,-0.0043693977,9.7932799383,0.0014680531,-0.0000020669,-0.1744833917
558962.7500241670,0.0007149931,0.0002096754,9.7943419869,0.0010446446,0.0000196343,-0.1745484773
558962.7600241670,-0.0003450746,-0.0023875202,9.7940446627,0.0018480352,0.0000196343,-0.1745376297
558962.7700241670,-0.0011048606,-0.0040682344,9.7935927098,0.0007840855,0.0000413356,-0.1744833917
558962.7800241670,0.0000934067,0.0015802638,9.7935851409,0.0019240316,-0.0000020669,-0.1744942393
558962.7900241670,-0.0003392115,-0.0048277426,9.7935860173,0.0008709385,0.0000304849,-0.1745376297
558962.8000241671,-0.0008186848,0.0023387995,9.7943556509,0.0017611821,-0.0000020669,-0.1745159345
558962.8100241669,-0.0010977503,-0.0062035418,9.7934392235,0.0011206410,0.0000413356,-0.1745159345
558962.8200241670,0.0002471888,0.0018858040,9.7938890312,0.0014789098,0.0000413356,-0.1744400014
558962.8300241670,0.0004204311,-0.0046719504,9.7932747239,0.0014029134,-0.0000020669,-0.1745267821
558962.8400241670,-0.0006651034,0.0005094490,9.7935909963,0.0011314976,0.0000521862,-0.1745159345
558962.8500241670,-0.0008039552,-0.0029992954,9.7935906606,0.0017394689,0.0000087837,-0.1744616966
558962.8600241670,-0.0000466636,-0.0019284112,9.7934322955,0.0008600819,0.0000196343,-0.1744616966
558962.8700241670,0.0002477551,0.0014282927,9.7937363122,0.0019674581,-0.0000020669,-0.1744616966
558962.8800241670,0.0001244284,-0.0054361827,9.7940394614,0.0008383686,0.0000304849,-0.1745159345
558962.8900241670,-0.0014324226,0.0029464755,9.7942084951,0.0017937520,-0.0000020669,-0.1744942393
558962.9000241670,-0.0003295495,-0.0057432513,9.7943481476,0.0010663578,0.0000521862,-0.1744616966
558962.9100241670,-0.0000603180,0.0018846923,9.7935865491,0.0014463399,0.0000196343,-0.1744833917
558962.9200241670,0.0008792543,-0.0046701440,9.7934234274,0.0014463399,0.0000087837,-0.1744942393
558962.9300241671,-0.0005082894,0.0006623234,9.7941998363,0.0011206410,0.0000413356,-0.1745159345
558962.9400241670,-0.0005023689,-0.0011679302,9.7940464895,0.0017611821,0.0000087837,-0.1744725442
558962.9500241670,-0.0009463192,-0.0049829095,9.7938960420,0.0009252217,0.0000304849,-0.1744400014
558962.9600241670,0.0013190116,-0.0000924607,9.7934217139,0.0018480352,0.0000087837,-0.1744725442
558962.9700241670,-0.0003379070,-0.0039128588,9.7941964749,0.0008600819,-0.0000020669,-0.1745267821
558962.9800241670,-0.0011267865,0.0024902147,9.7940532386,0.0018371785,0.0000087837,-0.1744616966
558962.9900241670,-0.0009422121,-0.0066605667,9.7935902552,0.0009686482,0.0000304849,-0.1744725442
558963.0000241670,0.0005546383,0.0012769469,9.7938862147,0.0016526158,0.0000087837,-0.1744833917
558963.0100241670,0.0007219028,-0.0040605228,9.7931199557,0.0013052037,0.0000087837,-0.1748196671
558963.0200241670,-0.0008187708,0.0014238463,9.7938977031,0.0012943471,0.0000304849,-0.1745050869
558963.0300241670,-0.0009522970,-0.0037626247,9.7937440903,0.0016309026,0.0000087837,-0.1744833917
558963.0400241670,0.0010319613,-0.0028396124,9.7943380543,0.0009360783,0.0000521862,-0.1744833917
558963.0500241671,0.0002488589,0.0002082857,9.7932782248,0.0018371785,-0.0000129176,-0.1744833917
558963.0600241669,-0.0011089964,-0.0026955616,9.7937458474,0.0008600819,0.0000304849,-0.1745267821
558963.0700241670,-0.0017339802,0.0014200946,9.7939053155,0.0018914617,0.0000087837,-0.1745376297
558963.0800241670,-0.0003307966,-0.0060481662,9.7940429886,0.0008926518,0.0000196343,-0.1744616966
558963.0900241670,0.0002472175,0.0021907884,9.7940416804,0.0017503255,0.0000304849,-0.1744725442
558963.1000241670,0.0004264376,-0.0055872508,9.7935793249,0.0011749241,0.0000413356,-0.1744833917
558963.1100241670,-0.0009730331,0.0024907706,9.7942044796,0.0012943471,-0.0000020669,-0.1744725442
558963.1200241670,-0.0003349324,-0.0046754934,9.7941961261,0.0016200459,0.0000304849,-0.1744942393
558963.1300241670,-0.0003529233,-0.0016246079,9.7934349725,0.0009577916,0.0000196343,-0.1744725442
558963.1400241670,0.0000975425,0.0002075909,9.7934320033,0.0019240316,-0.0000020669,-0.1744616966
558963.1500241670,-0.0000383348,-0.0040637880,9.7934313189,0.0007949421,0.0000304849,-0.1744833917
558963.1600241670,-0.0003545360,0.0006628792,9.7943510774,0.0019131749,0.0000087837,-0.1744725442
558963.1700241670,-0.0003338573,-0.0062004848,9.7935853895,0.0009252217,0.0000413356,-0.1744833917
558963.1800241671,0.0006958124,0.0035656148,9.7935809728,0.0016743291,0.0000304849,-0.1744833917
558963.1900241670,-0.0021660036,-0.0051404386,9.7939061222,0.0012292073,0.0000087837,-0.1744942393
558963.2000241670,0.0004069487,0.0009710595,9.7943448732,0.0013160603,0.0000087837,-0.1745376297
558963.2100241670,0.0008823723,-0.0039078566,9.7941863250,0.0016526158,0.0000196343,-0.1745376297
558963.2200241670,0.0005647232,-0.0016209951,9.7937323796,0.0009469349,0.0000521862,-0.1744725442
558963.2300241670,-0.0008122554,-0.0005589342,9.7937442865,0.0018914617,0.0000087837,-0.1745050869
558963.2400241670,-0.0006436291,-0.0043715513,9.7938937836,0.0007732289,0.0000087837,-0.1744508490
558963.2500241670,0.0005527962,0.0011245588,9.7935811254,0.0019131749,-0.0000020669,-0.1744291538
558963.2600241670,0.0005850077,-0.0061969415,9.7940353064,0.0009360783,0.0000738874,-0.1744074586
558963.2700241670,-0.0011334166,0.0032530576,9.7935960581,0.0016960423,-0.0000129176,-0.1744183062
558963.2800241670,-0.0010951986,-0.0049837431,9.7943548401,0.0012400639,-0.0000020669,-0.1744725442
558963.2900241670,0.0007113663,0.0005148681,9.7940371069,0.0013052037,0.0000196343,-0.1745376297
558963.3000241671,-0.0000328945,-0.0045215771,9.7938886389,0.0016091893,0.0000087837,-0.1744942393
558963.3100241669,0.0001065522,-0.0011653596,9.7938889048,0.0009795048,0.0000521862,-0.1745159345
558963.3200241670,-0.0006639709,-0.0004055737,9.7932855582,0.0018480352,0.0000087837,-0.1744942393
558963.3300241670,-0.0006400022,-0.0046767440,9.7941986636,0.0008383686,-0.0000129176,-0.1745484773
558963.3400241670,0.0023760188,0.0023524164,9.7932614391,0.0019348882,0.0000087837,-0.1745484773
558963.3500241670,-0.0010904679,-0.0065089428,9.7942016327,0.0009252217,0.0000738874,-0.1745376297
558963.3600241670,-0.0024990058,0.0023320603,9.7940645875,0.0016526158,0.0000087837,-0.1745376297
558963.3700241670,-0.0006377086,-0.0062018048,9.7937404368,0.0012726338,-0.0000129176,-0.1745376297
558963.3800241670,0.0010043657,0.0017367507,9.7931200689,0.0012074940,0.0000196343,-0.1744942393
558963.3900241670,0.0005700775,-0.0029937374,9.7937317517,0.0017068990,0.0000087837,-0.1744616966
558963.4000241670,-0.0015611895,-0.0034602109,9.7940543243,0.0009252217,0.0000413356,-0.1744400014
558963.4100241670,-0.0027976175,-0.0002619395,9.7936084098,0.0019131749,-0.0000454694,-0.1744291538
558963.4200241670,0.0005699914,-0.0039086905,9.7932738039,0.0008275120,0.0000087837,-0.1744725442
558963.4300241671,0.0010056703,0.0026516344,9.7937305265,0.0019023183,0.0000196343,-0.1744942393
558963.4400241670,-0.0013925632,-0.0072728280,9.7942038214,0.0009360783,0.0000413356,-0.1744942393
558963.4500241670,-0.0015825491,0.0026407269,9.7943621341,0.0015874761,0.0000087837,-0.1744942393
558963.4600241670,-0.0001836447,-0.0049797831,9.7938896984,0.0013920567,-0.0000129176,-0.1745267821
558963.4700241670,0.0004019887,0.0000563840,9.7932768863,0.0011749241,0.0000087837,-0.1745267821
558963.4800241670,0.0002674447,-0.0029951268,9.7940393087,0.0017611821,0.0000521862,-0.1744942393
558963.4900241670,-0.0023280858,-0.0030056176,9.7937558578,0.0008492253,0.0000304849,-0.1745376297
558963.5000241670,-0.0014326233,0.0008115847,9.7931399502,0.0019240316,-0.0000129176,-0.1745376297
558963.5100241670,0.0010414800,-0.0052800430,9.7943369382,0.0008275120,0.0000413356,-0.1745267821
558963.5200241670,0.0003997524,0.0021914137,9.7940404117,0.0018480352,0.0000304849,-0.1744725442
558963.5300241670,-0.0006347053,-0.0066594550,9.7938927372,0.0010337880,0.0000304849,-0.1744508490
558963.5400241670,-0.0011286286,0.0023378267,9.7937481493,0.0015874761,0.0000087837,-0.1744616966
558963.5500241671,0.0005814382,-0.0052817800,9.7940357249,0.0013703435,-0.0000129176,-0.1744616966
558963.5600241669,0.0002532240,0.0012754880,9.7943462814,0.0012617772,0.0000304849,-0.1744616966
558963.5700241670,-0.0015594047,-0.0039177916,9.7940541150,0.0016091893,-0.0000020669,-0.1744725442
558963.5800241670,-0.0012669429,-0.0019334134,9.7934424454,0.0009577916,0.0000413356,-0.1744942393
558963.5900241670,0.0011688563,-0.0007031936,9.7934227036,0.0019023183,-0.0000129176,-0.1745376297
558963.6000241670,0.0004283084,-0.0051298784,9.7940370634,0.0007949421,0.0000304849,-0.1745376297
558963.6100241670,-0.0012805973,0.0018796901,9.7935966990,0.0019240316,-0.0000129176,-0.1745050869
558963.6200241670,-0.0017061052,-0.0066636236,9.7934440891,0.0009577916,0.0000413356,-0.1745376297
558963.6300241670,0.0005450049,0.0024974400,9.7932767337,0.0015874761,0.0000196343,-0.1745267821
558963.6400241670,0.0014971852,-0.0060405240,9.7937227442,0.0013269169,0.0000087837,-0.1744942393
558963.6500241670,-0.0005120022,0.0000525629,9.7934370085,0.0011749241,0.0000304849,-0.1745267821
558963.6600241680,-0.0011066167,-0.0033056692,9.7937455683,0.0017611821,-0.0000020669,-0.1744725442
558963.6700241680,-0.0004958248,-0.0028457263,9.7940457222,0.0008709385,0.0000196343,-0.1745050869
558963.6800241680,0.0002519195,0.0003606043,9.7937358239,0.0019566015,0.0000087837,-0.1744833917
558963.6900241680,-0.0001770146,-0.0057426260,9.7943468788,0.0007949421,0.0000087837,-0.1745050869
558963.7000241680,-0.0005167042,0.0018827470,9.7937428651,0.0018697484,0.0000304849,-0.1745050869
558963.7100241680,-0.0003277360,-0.0058958476,9.7945005876,0.0009795048,0.0000304849,-0.1745376297
558963.7200241680,-0.0000566912,0.0015794996,9.7938914291,0.0015657628,-0.0000020669,-0.1744833917
558963.7300241680,0.0004312830,-0.0058925129,9.7940367146,0.0013269169,-0.0000020669,-0.1745593249
558963.7400241680,-0.0011281197,0.0012703466,9.7932901318,0.0012943471,0.0000304849,-0.1745376297
558963.7500241681,-0.0018675065,-0.0037663764,9.7937517028,0.0016743291,-0.0000129176,-0.1745159345
558963.7600241679,0.0014841258,-0.0023799475,9.7938769281,0.0009469349,0.0000738874,-0.1744616966
558963.7700241680,0.0005605301,-0.0008582911,9.7935802186,0.0019240316,0.0000196343,-0.1744616966
558963.7800241680,-0.0007967876,-0.0045246340,9.7937424728,0.0007840855,0.0000087837,-0.1744508490
558963.7900241680,-0.0015832588,0.0015733163,9.7937516068,0.0019131749,-0.0000020669,-0.1744616966
558963.8000241680,-0.0000209388,-0.0069621466,9.7941925423,0.0010012181,0.0000196343,-0.1744074586
558963.8100241680,0.0000970623,0.0015800554,9.7940426702,0.0016309026,-0.0000020669,-0.1744616966
558963.8200241680,-0.0004899903,-0.0055909330,9.7934344275,0.0013269169,0.0000087837,-0.1744616966
558963.8300241680,-0.0012655810,-0.0004085608,9.7943582015,0.0012292073,0.0000087837,-0.1744508490
558963.8400241680,-0.0008028227,-0.0039143180,9.7932852226,0.0017177556,-0.0000129176,-0.1744508490
558963.8500241680,0.0010277109,-0.0026868771,9.7938805948,0.0008926518,0.0000196343,-0.1744833917
558963.8600241680,0.0002543278,0.0000554810,9.7938881941,0.0019023183,0.0000196343,-0.1745050869
558963.8700241680,-0.0001829924,-0.0045223412,9.7941949271,0.0008817951,0.0000087837,-0.1745267821
558963.8800241679,-0.0008139828,0.0005086154,9.7940497943,0.0018697484,-0.0000020669,-0.1744725442
558963.8900241680,0.0007339445,-0.0055861391,9.7938818069,0.0009360783,0.0000413356,-0.1745593249
558963.9000241680,0.0002424008,0.0028010349,9.7937369400,0.0017394689,0.0000196343,-0.1745376297
558963.9100241680,-0.0004851737,-0.0062011796,9.7937391680,0.0011314976,-0.0000020669,-0.1745484773
558963.9200241680,-0.0009743376,0.0015758868,9.7935940220,0.0013812001,0.0000087837,-0.1745267821
558963.9300241680,-0.0009451867,-0.0058979321,9.7935906040,0.0015440495,-0.0000020669,-0.1744725442
558963.9400241680,0.0004098373,-0.0007065283,9.7938865766,0.0010880711,0.0000413356,-0.1744616966
558963.9500241680,-0.0001925111,-0.0020819106,9.7941960432,0.0018480352,-0.0000020669,-0.1744616966
558963.9600241680,-0.0009498887,-0.0040677480,9.7938964606,0.0007840855,0.0000413356,-0.1744291538
558963.9700241680,-0.0003563494,0.0008154756,9.7941986373,0.0019674581,-0.0000563201,-0.1744725442
558963.9800241680,-0.0000293823,-0.0060467074,9.7935829218,0.0008600819,0.0000413356,-0.1745050869
558963.9900241680,0.0002436193,0.0028009655,9.7938894497,0.0017286122,0.0000087837,-0.1744942393
558964.0000241681,-0.0003332623,-0.0063530118,9.7935853198,0.0012183507,-0.0000020669,-0.1745484773
558964.0100241679,-0.0003581341,0.0012730563,9.7941988466,0.0013486302,0.0000196343,-0.1748088196
558964.0200241680,-0.0003379356,-0.0042178432,9.7940438256,0.0016960423,0.0000087837,-0.1745050869
558964.0300241680,-0.0001954570,-0.0010142916,9.7943490413,0.0008709385,0.0000304849,-0.1745267821
558964.0400241680,-0.0012698028,0.0000491588,9.7940533912,0.0019240316,-0.0000020669,-0.1745159345
558964.0500241680,-0.0015511619,-0.0069681216,9.7935951906,0.0007623722,0.0000087837,-0.1745267821
558964.0600241680,0.0002478698,0.0026482303,9.7943469092,0.0019023183,-0.0000020669,-0.1744833917
558964.0700241680,0.0005850077,-0.0061969415,9.7940353064,0.0010337880,0.0000304849,-0.1745159345
558964.0800241680,-0.0002110682,0.0014264863,9.7935876086,0.0015549062,0.0000196343,-0.1744833917
558964.0900241680,-0.0004845214,-0.0057437377,9.7940443968,0.0013920567,-0.0000020669,-0.1744942393
558964.1000241680,-0.0006536279,-0.0005586561,9.7945055665,0.0011532109,0.0000196343,-0.1744725442
558964.1100241680,0.0001130963,-0.0028431557,9.7938881375,0.0017286122,-0.0000020669,-0.1744183062
558964.1200241680,-0.0000448789,-0.0023859919,9.7934320862,0.0008600819,0.0000304849,-0.1744508490
558964.1300241679,-0.0006578784,-0.0004059209,9.7940481070,0.0019674581,-0.0000020669,-0.1744508490
558964.1400241680,-0.0012412468,-0.0072721332,9.7940500429,0.0008057987,0.0000304849,-0.1744833917
558964.1500241680,0.0003871158,0.0038695569,9.7932786302,0.0019023183,-0.0000129176,-0.1745159345
558964.1600241680,0.0002866254,-0.0063510662,9.7948003229,0.0010337880,0.0000521862,-0.1745376297
558964.1700241680,-0.0005113787,0.0002050204,9.7935895880,0.0014680531,-0.0000129176,-0.1745376297
558964.1800241680,-0.0004947783,-0.0046757021,9.7932823363,0.0014789098,-0.0000020669,-0.1745593249
558964.1900241680,0.0001000082,0.0005124365,9.7938896721,0.0011206410,0.0000304849,-0.1745484773
558964.2000241680,-0.0011126232,-0.0023903689,9.7934409674,0.0017828954,-0.0000129176,-0.1745050869
558964.2100241680,-0.0001830784,-0.0054372944,9.7937369793,0.0008817951,0.0000413356,-0.1745050869
558964.2200241680,-0.0002057713,-0.0005562248,9.7932816823,0.0019566015,0.0000087837,-0.1744725442
558964.2300241680,-0.0000304862,-0.0048267003,9.7940410091,0.0008383686,0.0000087837,-0.1745267821
558964.2400241680,-0.0000584186,0.0026470492,9.7941969370,0.0018154653,-0.0000020669,-0.1745376297
558964.2500241681,-0.0015408763,-0.0077311729,9.7945099004,0.0010229313,0.0000196343,-0.1745159345
558964.2600241679,0.0003996664,0.0012764605,9.7935824639,0.0015657628,0.0000087837,-0.1744942393
558964.2700241680,-0.0003422434,-0.0046750768,9.7932810676,0.0014137700,0.0000196343,-0.1745376297
558964.2800241680,-0.0008157962,0.0006612117,9.7938973543,0.0011749241,0.0000196343,-0.1744942393
558964.2900241680,-0.0003428097,-0.0042175655,9.7934337866,0.0017503255,0.0000087837,-0.1744942393
558964.3000241680,-0.0000376825,-0.0036063461,9.7937365477,0.0008926518,0.0000196343,-0.1744508490
558964.3100241680,0.0007022992,0.0012778499,9.7932749069,0.0019023183,0.0000087837,-0.1745050869
558964.3200241680,-0.0004850876,-0.0052862264,9.7941971158,0.0008057987,0.0000304849,-0.1745267821
558964.3300241680,-0.0008187708,0.0014238463,9.7938977031,0.0018914617,-0.0000129176,-0.1744833917
558964.3400241680,-0.0013955664,-0.0068151778,9.7940515209,0.0010337880,0.0000196343,-0.1744833917
558964.3500241680,0.0002496258,0.0018856651,9.7941940507,0.0015874761,0.0000087837,-0.1744833917
558964.3600241680,-0.0004869584,-0.0057435988,9.7937393773,0.0013160603,0.0000087837,-0.1744725442
558964.3700241680,-0.0006560363,-0.0002535328,9.7943531963,0.0012617772,-0.0000020669,-0.1744616966
558964.3800241679,-0.0015582436,-0.0045278298,9.7939013263,0.0016417592,0.0000087837,-0.1744508490
558964.3900241680,0.0002603343,-0.0008598194,9.7941927951,0.0010229313,0.0000304849,-0.1745376297
558964.4000241680,0.0002590872,-0.0011647343,9.7938876361,0.0018263219,-0.0000020669,-0.1745701725
558964.4100241680,-0.0006430628,-0.0048290626,9.7937410646,0.0008926518,0.0000304849,-0.1745918677
558964.4200241680,-0.0002008972,-0.0005565025,9.7938917213,0.0019131749,-0.0000020669,-0.1745593249
558964.4300241680,-0.0007925945,-0.0052873380,9.7938946338,0.0008709385,0.0000196343,-0.1745484773
558964.4400241680,0.0008574145,0.0028032583,9.7943419040,0.0017503255,0.0000196343,-0.1745159345
558964.4500241680,-0.0003261233,-0.0081833348,9.7935844827,0.0011532109,0.0000087837,-0.1745159345
558964.4600241680,-0.0008145777,0.0006611423,9.7940498640,0.0013812001,-0.0000020669,-0.1744725442
558964.4700241680,-0.0001944392,-0.0031492518,9.7934330062,0.0016417592,-0.0000346188,-0.1745267821
558964.4800241680,0.0005634474,-0.0022308945,9.7932745713,0.0009577916,0.0000304849,-0.1744725442
558964.4900241680,0.0005761126,-0.0036040533,9.7941890020,0.0018914617,-0.0000020669,-0.1744725442
558964.5000241681,-0.0012538547,-0.0052890056,9.7934409107,0.0008275120,0.0000087837,-0.1744725442
558964.5100241679,-0.0017356790,0.0027926286,9.7943634726,0.0019240316,-0.0000346188,-0.1744616966
558964.5200241680,0.0002774722,-0.0065030376,9.7935801751,0.0008926518,0.0000196343,-0.1744833917
558964.5300241680,0.0000982234,0.0009700172,9.7938898814,0.0016743291,0.0000087837,-0.1744616966
558964.5400241680,-0.0004791385,-0.0068114955,9.7941964183,0.0013052037,0.0000087837,-0.1744616966
558964.5500241680,-0.0012721251,0.0012692352,9.7943589688,0.0013160603,-0.0000129176,-0.1745267821
558964.5600241680,-0.0000352455,-0.0036064850,9.7940415672,0.0016417592,0.0000196343,-0.1744833917
558964.5700241680,0.0007256443,-0.0031457779,9.7940354328,0.0009469349,0.0000304849,-0.1745376297
558964.5800241680,-0.0006538287,-0.0026935469,9.7934370216,0.0018480352,-0.0000020669,-0.1744942393
558964.5900241680,-0.0011036421,-0.0040683038,9.7937452196,0.0008492253,0.0000196343,-0.1745593249
558964.6000241680,0.0011563631,0.0024998716,9.7934241685,0.0019023183,-0.0000020669,-0.1745050869
558964.6100241680,-0.0003260373,-0.0072683816,9.7940424305,0.0008926518,0.0000304849,-0.1745159345
558964.6200241680,-0.0006578497,-0.0001009365,9.7942007563,0.0017394689,0.0000196343,-0.1744508490
558964.6300241679,-0.0001788853,-0.0061999984,9.7938891403,0.0012074940,-0.0000129176,-0.1744833917
558964.6400241680,0.0000947399,0.0028001319,9.7943482477,0.0013269169,0.0000087837,-0.1744725442
558964.6500241680,-0.0001776668,-0.0062000679,9.7940416501,0.0015766194,0.0000087837,-0.1744616966
558964.6600241680,-0.0015671960,-0.0025449105,9.7937497233,0.0010120747,0.0000196343,-0.1744400014
558964.6700241680,-0.0014242371,-0.0007138233,9.7934442722,0.0019674581,-0.0000346188,-0.1744508490
558964.6800241680,0.0013429229,-0.0049735998,9.7940295207,0.0007732289,0.0000196343,-0.1745267821
558964.6900241680,0.0006998908,0.0015829732,9.7931225367,0.0019566015,-0.0000346188,-0.1745050869
558964.7000241680,-0.0003194932,-0.0089461777,9.7940416632,0.0009795048,0.0000304849,-0.1744725442
558964.7100241680,-0.0011303847,0.0031003918,9.7939010079,0.0015549062,0.0000087837,-0.1745050869
558964.7200241680,-0.0015595194,-0.0051377292,9.7934435180,0.0014680531,-0.0000129176,-0.1745267821
558964.7300241690,0.0008741295,-0.0008575266,9.7946452494,0.0010337880,0.0000196343,-0.1745376297
558964.7400241690,-0.0000400622,-0.0029962385,9.7937368267,0.0019240316,0.0000087837,-0.1745159345
558964.7500241690,-0.0010982305,-0.0048310773,9.7940498903,0.0008275120,0.0000304849,-0.1744833917
558964.7600241690,-0.0011251165,0.0008126964,9.7934424322,0.0019674581,0.0000087837,-0.1744942393
558964.7700241690,0.0005819471,-0.0063492601,9.7935777073,0.0008600819,-0.0000020669,-0.1744616966
558964.7800241690,0.0002537902,0.0008179767,9.7941935624,0.0017068990,-0.0000020669,-0.1744183062
558964.7900241690,-0.0007824235,-0.0072703268,9.7941987465,0.0012617772,0.0000196343,-0.1744508490
558964.8000241690,-0.0006777400,0.0021875922,9.7928292148,0.0013812001,0.0000087837,-0.1744725442
558964.8100241690,0.0008854042,-0.0040605224,9.7944912748,0.0015331929,-0.0000346188,-0.1744942393
558964.8200241691,-0.0000291530,-0.0036068322,9.7948041160,0.0010337880,0.0000304849,-0.1744942393
558964.8300241689,-0.0003409102,-0.0034552086,9.7940441744,0.0018914617,-0.0000129176,-0.1744942393
558964.8400241690,0.0002614095,-0.0023848108,9.7935820585,0.0008275120,0.0000304849,-0.1745159345
558964.8500241690,0.0003966918,0.0020390951,9.7935828127,0.0019023183,0.0000196343,-0.1745050869
558964.8600241690,0.0007445669,-0.0092465768,9.7934226035,0.0008709385,-0.0000020669,-0.1745159345
558964.8700241690,-0.0000561536,0.0008170039,9.7935860608,0.0018263219,-0.0000020669,-0.1745484773
558964.8800241690,-0.0021587499,-0.0057508240,9.7945158822,0.0012074940,0.0000413356,-0.1745267821
558964.8900241690,-0.0006655263,0.0024918822,9.7945069617,0.0013160603,0.0000087837,-0.1745050869
558964.9000241690,0.0007351056,-0.0061961773,9.7937290181,0.0016200459,-0.0000129176,-0.1744833917
558964.9100241690,-0.0003366311,-0.0033029595,9.7946542832,0.0009469349,0.0000087837,-0.1744616966
558964.9200241690,-0.0009630055,-0.0010171402,9.7937453459,0.0019783147,-0.0000237682,-0.1744183062
558964.9300241690,0.0002703332,-0.0046727146,9.7935810121,0.0007732289,0.0000304849,-0.1744400014
558964.9400241690,-0.0000537166,0.0008168650,9.7938910804,0.0019348882,0.0000196343,-0.1744833917
558964.9500241691,-0.0000223007,-0.0084869992,9.7932767862,0.0009686482,0.0000087837,-0.1744833917
558964.9600241689,0.0000946539,0.0018851787,9.7938902999,0.0016417592,-0.0000129176,-0.1744833917
558964.9700241690,-0.0000280778,-0.0051318236,9.7941933794,0.0013160603,0.0000196343,-0.1745050869
558964.9800241690,0.0002519482,0.0006655887,9.7938884731,0.0012183507,0.0000087837,-0.1744942393
558964.9900241690,-0.0007932754,-0.0060497643,9.7934367557,0.0017177556,-0.0000129176,-0.1745159345
558965.0000241690,-0.0004904132,-0.0036084997,9.7943503929,0.0009360783,-0.0000020669,-0.1745267821
558965.0100241690,-0.0005100741,0.0011199041,9.7942000456,0.0020000280,-0.0000020669,-0.1747762768
558965.0200241690,0.0004282224,-0.0060448315,9.7935791156,0.0007732289,0.0000304849,-0.1745159345
558965.0300241690,-0.0005131921,0.0003576168,9.7934371480,0.0018806050,-0.0000346188,-0.1744616966
558965.0400241690,-0.0007776642,-0.0084905422,9.7941981884,0.0010555012,0.0000196343,-0.1744400014
558965.0500241690,0.0000922742,0.0024952864,9.7938905789,0.0014897664,-0.0000020669,-0.1744725442
558965.0600241690,-0.0001854581,-0.0048271868,9.7937372584,0.0015440495,0.0000196343,-0.1744725442
558965.0700241691,-0.0005000179,-0.0020830222,9.7938935612,0.0010120747,0.0000087837,-0.1744725442
558965.0800241689,-0.0012603414,-0.0030012407,9.7937469766,0.0019348882,-0.0000129176,-0.1744725442
558965.0900241690,-0.0003355560,-0.0048279509,9.7940435466,0.0008275120,0.0000087837,-0.1745267821
558965.1000241690,0.0002484360,0.0021907190,9.7941941902,0.0019240316,0.0000196343,-0.1744942393
558965.1100241690,-0.0004750027,-0.0081841684,9.7940432807,0.0009143650,0.0000087837,-0.1745267821
558965.1200241690,0.0000939730,0.0011227524,9.7934324219,0.0017177556,0.0000087837,-0.1744833917
558965.1300241690,0.0007405459,-0.0066539664,9.7941863381,0.0012617772,0.0000087837,-0.1745376297
558965.1400241690,-0.0003593526,0.0012731258,9.7940463369,0.0013812001,0.0000196343,-0.1745484773
558965.1500241690,-0.0000250746,-0.0055894738,9.7943456799,0.0016091893,0.0000087837,-0.1745376297
558965.1600241690,-0.0001956290,-0.0028441980,9.7934331457,0.0009795048,0.0000196343,-0.1745376297
558965.1700241690,-0.0012669142,-0.0016284290,9.7935950946,0.0019131749,-0.0000454694,-0.1745484773
558965.1800241690,-0.0001842683,-0.0051322406,9.7937371188,0.0007840855,0.0000304849,-0.1745159345
558965.1900241690,-0.0002062802,0.0005112553,9.7937396998,0.0019566015,-0.0000020669,-0.1744833917
558965.2000241691,-0.0004792245,-0.0077264487,9.7937384705,0.0009469349,0.0000196343,-0.1744291538
558965.2100241689,0.0002405874,0.0029536313,9.7935845000,0.0017068990,-0.0000020669,-0.1744183062
558965.2200241690,0.0007368904,-0.0066537581,9.7937288089,0.0012943471,-0.0000020669,-0.1744616966
558965.2300241690,0.0001035203,-0.0010126938,9.7935839550,0.0012617772,0.0000196343,-0.1744616966
558965.2400241690,-0.0001836160,-0.0046747987,9.7940423476,0.0017068990,-0.0000129176,-0.1744616966
558965.2500241690,-0.0000460400,-0.0017759537,9.7935848750,0.0009252217,0.0000087837,-0.1744833917
558965.2600241690,0.0007142549,-0.0011627196,9.7935788103,0.0019674581,-0.0000129176,-0.1745050869
558965.2700241690,0.0010407417,-0.0066524381,9.7935737616,0.0007732289,0.0000196343,-0.1745484773
558965.2800241690,-0.0008163625,0.0011187230,9.7940500733,0.0019566015,-0.0000020669,-0.1744833917
558965.2900241690,-0.0006371136,-0.0063543318,9.7937403670,0.0010229313,0.0000413356,-0.1745267821
558965.3000241690,-0.0003641693,0.0018833723,9.7937415964,0.0015657628,-0.0000020669,-0.1745376297
558965.3100241690,0.0004288173,-0.0061973585,9.7935790458,0.0012943471,-0.0000129176,-0.1745050869
558965.3200241691,0.0002561126,-0.0004020998,9.7938879848,0.0013052037,0.0000196343,-0.1744942393
558965.3300241689,-0.0004893381,-0.0051334911,9.7937396563,0.0016743291,-0.0000129176,-0.1744616966
558965.3400241690,-0.0000459827,-0.0011659849,9.7938901735,0.0009795048,0.0000413356,-0.1744291538
558965.3500241690,0.0004109698,-0.0016215509,9.7935811385,0.0018480352,-0.0000346188,-0.1744291538
558965.3600241690,0.0001231526,-0.0060460821,9.7935816531,0.0008709385,0.0000196343,-0.1743966110
558965.3700241690,0.0010236038,-0.0010092199,9.7941863816,0.0019566015,-0.0000020669,-0.1744833917
558965.3800241690,-0.0006449336,-0.0052864350,9.7932833260,0.0008492253,0.0000196343,-0.1745267821
558965.3900241690,0.0000964387,0.0014275980,9.7938900906,0.0017394689,-0.0000020669,-0.1745376297
558965.4000241690,-0.0006269140,-0.0080323362,9.7941971290,0.0012074940,0.0000087837,-0.1745267821
558965.4100241690,-0.0003564067,0.0002055068,9.7938933388,0.0014029134,-0.0000020669,-0.1745376297
558965.4200241690,-0.0004898470,-0.0040660110,9.7941976739,0.0016526158,0.0000196343,-0.1744942393
558965.4300241690,0.0004152202,-0.0017742862,9.7940385980,0.0009360783,0.0000304849,-0.1745159345
558965.4400241690,0.0005671029,-0.0022311028,9.7937321005,0.0019023183,0.0000087837,-0.1744942393
558965.4500241691,-0.0006340530,-0.0062020131,9.7941979660,0.0007949421,0.0000087837,-0.1745267821
558965.4600241689,-0.0000536879,0.0011218494,9.7940437296,0.0019783147,-0.0000020669,-0.1745050869
558965.4700241690,0.0005867351,-0.0072644910,9.7937297986,0.0009577916,0.0000196343,-0.1744725442
558965.4800241690,0.0007036037,0.0021927337,9.7938853645,0.0016417592,0.0000304849,-0.1745050869
558965.4900241690,-0.0000257842,-0.0066568845,9.7937351525,0.0013269169,-0.0000020669,-0.1745050869
558965.5000241690,-0.0003570016,0.0003580337,9.7938934086,0.0011857808,-0.0000020669,-0.1744833917
558965.5100241690,-0.0000364927,-0.0039114000,9.7937364082,0.0017937520,-0.0000020669,-0.1744725442
558965.5200241690,-0.0000334607,-0.0040640658,9.7940413579,0.0008383686,0.0000196343,-0.1744508490
558965.5300241690,0.0004074576,-0.0000964207,9.7938868556,0.0020000280,-0.0000346188,-0.1744942393
558965.5400241690,-0.0003283883,-0.0063532895,9.7941953588,0.0008492253,0.0000087837,-0.1745159345
558965.5500241690,-0.0002116057,0.0021889820,9.7938929769,0.0018480352,-0.0000020669,-0.1745050869
558965.5600241690,-0.0000137425,-0.0081825008,9.7944970038,0.0011314976,0.0000087837,-0.1745267821
558965.5700241691,0.0007089866,0.0011249758,9.7940373859,0.0014354832,0.0000087837,-0.1745267821
558965.5800241689,-0.0007877778,-0.0058975846,9.7941993743,0.0015657628,-0.0000346188,-0.1745267821
558965.5900241690,-0.0015683285,-0.0016298879,9.7940551614,0.0010120747,-0.0000020669,-0.1745267821
558965.6000241690,-0.0000418469,-0.0025386577,9.7937370360,0.0019566015,-0.0000020669,-0.1744942393
558965.6100241690,0.0011921154,-0.0060417746,9.7937252817,0.0008275120,0.0000304849,-0.1744291538
558965.6200241690,0.0010037708,0.0018892776,9.7931201387,0.0019348882,-0.0000020669,-0.1744183062
558965.6300241690,-0.0001753158,-0.0071151599,9.7938887218,0.0009143650,-0.0000020669,-0.1744400014
558965.6400241690,-0.0008097323,0.0003558801,9.7945072538,0.0016417592,-0.0000129176,-0.1744074586
558965.6500241690,-0.0001722552,-0.0069628413,9.7943463208,0.0013812001,0.0000196343,-0.1744508490
558965.6600241690,-0.0000567485,0.0009695308,9.7935861306,0.0011749241,0.0000087837,-0.1744942393
558965.6700241690,-0.0003354700,-0.0039129977,9.7945014944,0.0018371785,-0.0000346188,-0.1744833917
558965.6800241690,0.0004282797,-0.0054348627,9.7938844141,0.0008600819,0.0000196343,-0.1745159345
558965.6900241690,-0.0003460924,-0.0002525600,9.7949606978,0.0019891713,-0.0000020669,-0.1744508490
558965.7000241691,0.0002762824,-0.0061979837,9.7935803146,0.0008383686,0.0000304849,-0.1745159345
558965.7100241689,0.0000916220,0.0020378445,9.7935853502,0.0018154653,-0.0000020669,-0.1745484773
558965.7200241690,-0.0001772153,-0.0078775168,9.7932783340,0.0010989277,-0.0000020669,-0.1745484773
558965.7300241690,0.0005571040,0.0015817924,9.7943438835,0.0014897664,0.0000087837,-0.1745701725
558965.7400241690,0.0002824036,-0.0058933465,9.7944955126,0.0015766194,0.0000087837,-0.1745484773
558965.7500241690,0.0001076561,-0.0023853666,9.7934308175,0.0010337880,-0.0000020669,-0.1744942393
558965.7600241690,0.0004194420,-0.0022320058,9.7943434083,0.0018697484,-0.0000346188,-0.1744725442
558965.7700241690,-0.0001866766,-0.0048271173,9.7935847486,0.0008383686,-0.0000020669,-0.1744616966
558965.7800241690,-0.0009707681,0.0006607253,9.7935936035,0.0019348882,0.0000087837,-0.1744616966
558965.7900241690,0.0004390169,-0.0078753629,9.7940358078,0.0009143650,0.0000304849,-0.1744833917
558965.8000241690,0.0019237683,0.0009777983,9.7932646175,0.0017503255,-0.0000129176,-0.1744942393
558965.8100241700,-0.0001709794,-0.0063529420,9.7948041291,0.0012292073,-0.0000020669,-0.1744725442
558965.8200241700,-0.0006626090,0.0011192789,9.7942013143,0.0013920567,0.0000196343,-0.1744833917
558965.8300241700,-0.0007872115,-0.0063550959,9.7940466553,0.0015874761,0.0000087837,-0.1744508490
558965.8400241700,0.0011808120,-0.0031437632,9.7937266070,0.0009795048,0.0000304849,-0.1744508490
558965.8500241700,0.0010181348,-0.0008564153,9.7935764124,0.0019240316,-0.0000346188,-0.1744616966
558965.8600241700,-0.0003362082,-0.0052853928,9.7937383178,0.0007840855,0.0000196343,-0.1745484773
558965.8700241700,-0.0005167329,0.0015777627,9.7935902158,0.0019566015,-0.0000020669,-0.1745593249
558965.8800241700,-0.0004708670,-0.0095568412,9.7938901431,0.0010012181,0.0000196343,-0.1745267821
558965.8900241700,0.0013089267,0.0028054813,9.7935755490,0.0016417592,-0.0000129176,-0.1744833917
558965.9000241701,-0.0003205397,-0.0071162019,9.7948050491,0.0013269169,0.0000196343,-0.1744508490
558965.9100241699,-0.0011136697,-0.0005603930,9.7942043532,0.0012183507,-0.0000020669,-0.1744291538
558965.9200241700,-0.0003362369,-0.0055903772,9.7935856686,0.0017503255,-0.0000020669,-0.1744508490
558965.9300241700,0.0022503985,-0.0029869982,9.7940228152,0.0009577916,0.0000087837,-0.1744291538
558965.9400241700,0.0002548941,-0.0004020303,9.7937354751,0.0019566015,-0.0000129176,-0.1744833917
558965.9500241700,-0.0010977216,-0.0058985574,9.7935918727,0.0008492253,0.0000087837,-0.1745376297
558965.9600241700,-0.0000459540,-0.0008610005,9.7940428228,0.0019131749,0.0000087837,-0.1745050869
558965.9700241700,0.0016562356,-0.0080226792,9.7935680589,0.0009360783,0.0000196343,-0.1745267821
558965.9800241700,0.0007011954,0.0024978569,9.7937329942,0.0016309026,0.0000087837,-0.1745376297
558965.9900241700,-0.0026146845,-0.0074302182,9.7939088820,0.0013160603,-0.0000454694,-0.1745376297
558966.0000241700,-0.0015725789,-0.0014771526,9.7935977019,0.0013052037,-0.0000020669,-0.1745050869
558966.0100241700,0.0010379105,-0.0043648815,9.7943373568,0.0017177556,0.0000196343,-0.1747437340
558966.0200241701,0.0013303723,-0.0023805033,9.7937256871,0.0009795048,0.0000196343,-0.1744508490
558966.0300241699,-0.0005018026,-0.0016254415,9.7938937705,0.0018154653,-0.0000346188,-0.1743857634
558966.0400241700,-0.0020026741,-0.0069703447,9.7943615456,0.0008709385,0.0000087837,-0.1744074586
558966.0500241700,0.0007070298,-0.0002473498,9.7931216996,0.0019131749,-0.0000237682,-0.1744074586
558966.0600241700,0.0021025082,-0.0054277764,9.7934129288,0.0009469349,0.0000413356,-0.1744291538
558966.0700241700,0.0008644675,0.0000579821,9.7938831192,0.0018046086,-0.0000020669,-0.1744725442
558966.0800241700,-0.0013925632,-0.0072728280,9.7942038214,0.0011097844,-0.0000020669,-0.1744942393
558966.0900241700,-0.0002103872,0.0021889126,9.7940454867,0.0015331929,-0.0000129176,-0.1745050869
558966.1000241700,0.0027205538,-0.0055782188,9.7943228426,0.0014680531,0.0000196343,-0.1745050869
558966.1100241700,0.0008709829,-0.0019247984,9.7937297026,0.0010663578,0.0000196343,-0.1744833917
558966.1200241700,-0.0012519266,-0.0042216643,9.7942039478,0.0018263219,-0.0000129176,-0.1745484773
558966.1300241700,-0.0018656931,-0.0039189727,9.7939041428,0.0009252217,-0.0000346188,-0.1745593249
558966.1400241700,0.0010181922,-0.0002464465,9.7938817109,0.0019566015,0.0000087837,-0.1745376297
558966.1500241701,0.0022713066,-0.0074104871,9.7944783215,0.0008600819,0.0000196343,-0.1745376297
558966.1600241699,-0.0011233891,-0.0002548531,9.7931369244,0.0018263219,-0.0000020669,-0.1744942393
558966.1700241700,-0.0029197257,-0.0071264844,9.7940640688,0.0010880711,-0.0000020669,-0.1744942393
558966.1800241700,0.0000976572,0.0014275285,9.7940426004,0.0015006230,-0.0000020669,-0.1744508490
558966.1900241700,0.0022670561,-0.0072577519,9.7940208620,0.0014571965,0.0000087837,-0.1744183062
558966.2000241700,0.0007196378,-0.0022304775,9.7937308318,0.0011749241,0.0000521862,-0.1744725442
558966.2100241700,-0.0029388490,-0.0031605762,9.7936083532,0.0017828954,-0.0000671707,-0.1744508490
558966.2200241700,0.0001215685,-0.0034536106,9.7946504072,0.0008817951,0.0000087837,-0.1744833917
558966.2300241700,0.0014853443,-0.0023800169,9.7940294379,0.0019674581,-0.0000020669,-0.1744833917
558966.2400241700,0.0005837032,-0.0071118252,9.7934248488,0.0008383686,0.0000413356,-0.1745159345
558966.2500241700,-0.0008235588,0.0023390772,9.7937456118,0.0018914617,-0.0000346188,-0.1746244105
558966.2600241700,-0.0012430889,-0.0074245213,9.7937449537,0.0010663578,-0.0000020669,-0.1747003436
558966.2700241701,-0.0006608243,0.0006616981,9.7942011051,0.0015549062,-0.0000346188,-0.1745267821
558966.2800241699,0.0007374566,-0.0071112694,9.7935760898,0.0014789098,0.0000196343,-0.1744616966
558966.2900241700,0.0011688277,-0.0010081780,9.7932700544,0.0011314976,0.0000304849,-0.1744074586
558966.3000241700,-0.0017124772,-0.0031559212,9.7943607521,0.0018154653,-0.0000454694,-0.1744291538
558966.3100241700,0.0002799666,-0.0058932077,9.7941904931,0.0008492253,0.0000087837,-0.1744291538
558966.3200241700,0.0008662235,-0.0007045830,9.7937302606,0.0019783147,-0.0000020669,-0.1744291538
558966.3300241700,0.0005783203,-0.0060440674,9.7932728273,0.0008926518,0.0000087837,-0.1744942393
558966.3400241700,-0.0008218314,0.0012715277,9.7934401040,0.0018154653,-0.0000129176,-0.1744616966
558966.3500241700,-0.0007770980,-0.0089480535,9.7940454694,0.0011314976,-0.0000020669,-0.1744616966
558966.3600241700,0.0010079639,0.0011265735,9.7932722997,0.0015223363,-0.0000020669,-0.1745050869
558966.3700241700,0.0024094488,-0.0049691534,9.7938681298,0.0014897664,0.0000087837,-0.1744833917
558966.3800241700,0.0007215372,-0.0014681207,9.7943412196,0.0010663578,0.0000304849,-0.1744833917
558966.3900241700,-0.0003379643,-0.0045228276,9.7938911764,0.0018480352,-0.0000020669,-0.1744942393
558966.4000241701,-0.0004869584,-0.0057435988,9.7937393773,0.0008492253,0.0000196343,-0.1745376297
558966.4100241699,-0.0009694923,0.0012706247,9.7940514118,0.0020651677,-0.0000346188,-0.1745159345
558966.4200241700,0.0004335480,-0.0077225582,9.7934258385,0.0008492253,0.0000196343,-0.1745701725
558966.4300241700,-0.0008217740,0.0018814965,9.7937454026,0.0017286122,-0.0000346188,-0.1745050869
558966.4400241700,-0.0007807248,-0.0086428608,9.7937405894,0.0013269169,-0.0000346188,-0.1745050869
558966.4500241700,0.0004111418,0.0002083554,9.7944970342,0.0012292073,0.0000196343,-0.1744725442
558966.4600241700,0.0010354734,-0.0043647427,9.7940323372,0.0017611821,-0.0000020669,-0.1744291538
558966.4700241700,0.0005814956,-0.0046718112,9.7943410235,0.0008817951,0.0000196343,-0.1744725442
558966.4800241700,-0.0009599449,-0.0008648216,9.7942029450,0.0020434545,-0.0000237682,-0.1745159345
558966.4900241700,0.0007374853,-0.0068062850,9.7937287391,0.0008057987,-0.0000129176,-0.1745376297
558966.5000241700,0.0004014798,0.0011238641,9.7937349039,0.0018371785,0.0000087837,-0.1745050869
558966.5100241700,0.0007440007,-0.0087890655,9.7935753225,0.0011314976,0.0000087837,-0.1744725442
558966.5200241701,0.0000987897,0.0005125059,9.7937371624,0.0014571965,-0.0000129176,-0.1745050869
558966.5300241699,0.0002708995,-0.0051302259,9.7934282931,0.0015223363,-0.0000346188,-0.1745267821
558966.5400241700,0.0005672176,-0.0010111652,9.7943426976,0.0011097844,0.0000304849,-0.1745159345
558966.5500241700,-0.0000340843,-0.0042165232,9.7938887784,0.0018480352,0.0000087837,-0.1744833917
558966.5600241700,0.0005777827,-0.0052815717,9.7935781956,0.0008492253,0.0000304849,-0.1745267821
558966.5700241700,0.0010145367,-0.0002462381,9.7934241816,0.0019783147,-0.0000129176,-0.1745159345
558966.5800241700,-0.0003266609,-0.0074208391,9.7938898510,0.0008492253,-0.0000129176,-0.1745050869
558966.5900241700,0.0002616962,0.0006650332,9.7951085512,0.0018697484,-0.0000020669,-0.1744183062
558966.6000241700,-0.0000209675,-0.0072671310,9.7940398930,0.0011314976,0.0000413356,-0.1744616966
558966.6100241700,0.0002556037,0.0006653803,9.7943460024,0.0014463399,-0.0000346188,-0.1744725442
558966.6200241700,-0.0009403414,-0.0062031943,9.7940479937,0.0016091893,-0.0000129176,-0.1744942393
558966.6300241700,-0.0001925397,-0.0023868950,9.7940433940,0.0010012181,-0.0000129176,-0.1744833917
558966.6400241700,0.0007159536,-0.0025352536,9.7931206532,0.0019240316,0.0000196343,-0.1744833917
558966.6500241701,-0.0000323856,-0.0055890572,9.7934306213,0.0007840855,0.0000304849,-0.1745376297
558966.6600241699,-0.0000483337,-0.0002508928,9.7940431018,0.0020000280,-0.0000020669,-0.1745159345
558966.6700241700,-0.0004767875,-0.0077265876,9.7940434900,0.0009469349,-0.0000346188,-0.1744833917
558966.6800241700,0.0003936025,0.0015817921,9.7929725644,0.0017177556,0.0000196343,-0.1744942393
558966.6900241700,-0.0006213877,-0.0075751720,9.7951123968,0.0013052037,0.0000087837,-0.1745484773
558966.7000241700,-0.0009648190,-0.0008645439,9.7935929059,0.0012183507,-0.0000129176,-0.1745376297
558966.7100241700,0.0019409922,-0.0037504667,9.7931099453,0.0018046086,-0.0000129176,-0.1745376297
558966.7200241700,0.0013381636,-0.0037533844,9.7940300788,0.0008275120,0.0000304849,-0.1744833917
558966.7300241700,0.0002614381,-0.0020798264,9.7937347078,0.0020108846,-0.0000020669,-0.1744291538
558966.7400241700,-0.0001728501,-0.0068103144,9.7943463906,0.0008709385,0.0000304849,-0.1744616966
558966.7500241700,-0.0006758979,0.0023399803,9.7931343041,0.0018046086,-0.0000563201,-0.1744183062
558966.7600241700,-0.0000089831,-0.0094027162,9.7944964457,0.0011749241,0.0000087837,-0.1745159345
558966.7700241701,0.0007100904,-0.0000950312,9.7935792986,0.0014137700,-0.0000020669,-0.1745376297
558966.7800241699,-0.0007920282,-0.0057448494,9.7937419148,0.0015766194,0.0000087837,-0.1745376297
558966.7900241700,0.0001173754,-0.0026909065,9.7944982463,0.0010229313,-0.0000020669,-0.1745593249
558966.8000241700,0.0004140017,-0.0017742167,9.7938860883,0.0019240316,-0.0000346188,-0.1745484773
558966.8100241700,0.0005819184,-0.0066542445,9.7934250581,0.0008492253,0.0000087837,-0.1745267821
558966.8200241700,-0.0003516761,-0.0013196929,9.7937401315,0.0019566015,0.0000304849,-0.1744833917
558966.8300241700,0.0013530939,-0.0069565886,9.7943336334,0.0009360783,-0.0000020669,-0.1744616966
558966.8400241700,0.0000927258,0.0008178375,9.7931272628,0.0017394689,-0.0000129176,-0.1744833917
558966.8500241700,0.0013548786,-0.0074141693,9.7943334242,0.0012074940,-0.0000454694,-0.1744833917
558966.8600241700,0.0004146827,-0.0010117905,9.7943439663,0.0014463399,0.0000196343,-0.1744400014
558966.8700241700,-0.0010916578,-0.0062038890,9.7942017722,0.0015874761,-0.0000129176,-0.1744074586
558966.8800241710,0.0014817174,-0.0020748242,9.7937245579,0.0010880711,-0.0000129176,-0.1744074586
558966.8900241710,-0.0008009233,-0.0031519612,9.7938956104,0.0018480352,-0.0000563201,-0.1744291538
558966.9000241710,0.0005868498,-0.0060445535,9.7943403956,0.0008709385,0.0000413356,-0.1744616966
558966.9100241710,0.0007094955,0.0000574957,9.7935793684,0.0019674581,-0.0000346188,-0.1744508490
558966.9200241710,-0.0001765343,-0.0071150905,9.7937362120,0.0008817951,0.0000304849,-0.1744942393
558966.9300241710,-0.0003600049,0.0008156839,9.7937411081,0.0017828954,-0.0000346188,-0.1744942393
558966.9400241710,0.0004317632,-0.0072649774,9.7934260478,0.0011857808,-0.0000129176,-0.1744942393
558966.9500241710,0.0010225000,0.0002107871,9.7946444690,0.0014789098,0.0000196343,-0.1744942393
558966.9600241710,0.0001309725,-0.0071139788,9.7940386941,0.0015549062,0.0000087837,-0.1745050869
558966.9700241711,-0.0001937296,-0.0020818411,9.7940435335,0.0010880711,-0.0000129176,-0.1745593249
558966.9800241709,-0.0006519866,-0.0025411588,9.7937421109,0.0018371785,-0.0000129176,-0.1745593249
558966.9900241710,0.0001201780,-0.0052834475,9.7935820019,0.0008926518,0.0000087837,-0.1745159345
558967.0000241710,0.0005652608,-0.0023834908,9.7934270113,0.0019674581,-0.0000020669,-0.1745050869
558967.0100241710,0.0015014070,-0.0064982437,9.7940275544,0.0009143650,0.0000087837,-0.1747437340
558967.0200241710,-0.0000602893,0.0021896767,9.7937391984,0.0018806050,-0.0000129176,-0.1744183062
558967.0300241710,0.0001327572,-0.0075715596,9.7940384848,0.0010663578,-0.0000020669,-0.1744616966
558967.0400241710,0.0019370572,-0.0002429031,9.7943316278,0.0015440495,0.0000196343,-0.1744833917
558967.0500241710,0.0028837972,-0.0083230781,9.7943203182,0.0014137700,-0.0000129176,-0.1745050869
558967.0600241710,-0.0005078092,-0.0007101411,9.7935891695,0.0012074940,0.0000196343,-0.1745267821
558967.0700241710,0.0008775843,-0.0029926257,9.7940342338,0.0017937520,-0.0000129176,-0.1745376297
558967.0800241710,-0.0009475377,-0.0049828401,9.7937435323,0.0009360783,0.0000196343,-0.1744616966
558967.0900241710,0.0017898192,-0.0022262394,9.7940269701,0.0019240316,-0.0000020669,-0.1744508490
558967.1000241711,0.0013506282,-0.0072614341,9.7938759646,0.0008600819,0.0000413356,-0.1744833917
558967.1100241710,-0.0014325659,0.0014215535,9.7934452487,0.0018914617,-0.0000563201,-0.1745159345
558967.1200241710,-0.0006377946,-0.0071167580,9.7932824889,0.0010555012,-0.0000454694,-0.1745701725
558967.1300241710,-0.0002062802,0.0005112553,9.7937396998,0.0015657628,0.0000087837,-0.1745050869
558967.1400241710,0.0007470326,-0.0089417313,9.7938802723,0.0014789098,-0.0000020669,-0.1744833917
558967.1500241710,0.0014770154,-0.0002446401,9.7940304144,0.0011532109,0.0000087837,-0.1744616966
558967.1600241710,-0.0012681614,-0.0019333440,9.7932899356,0.0018154653,-0.0000346188,-0.1744725442
558967.1700241710,-0.0003254137,-0.0071159241,9.7941950100,0.0008057987,-0.0000129176,-0.1744291538
558967.1800241710,0.0005634474,-0.0022308945,9.7932745713,0.0019891713,-0.0000237682,-0.1744833917
558967.1900241710,0.0012017775,-0.0069572833,9.7944874119,0.0009469349,0.0000196343,-0.1744942393
558967.2000241710,-0.0009791256,0.0024911178,9.7934419308,0.0017611821,-0.0000129176,-0.1745159345
558967.2100241710,-0.0009350158,-0.0078809209,9.7938947167,0.0012074940,-0.0000346188,-0.1745267821
558967.2200241711,0.0005665080,-0.0020785759,9.7937321703,0.0014463399,0.0000087837,-0.1744942393
558967.2300241709,0.0014941820,-0.0055828739,9.7935704437,0.0015874761,0.0000196343,-0.1744725442
558967.2400241710,0.0014756822,-0.0014645082,9.7932673076,0.0010229313,0.0000087837,-0.1744942393
558967.2500241710,0.0001124727,-0.0029956132,9.7937355580,0.0018263219,-0.0000454694,-0.1744616966
558967.2600241710,0.0001267794,-0.0063512748,9.7938865331,0.0009360783,0.0000196343,-0.1745484773
558967.2700241710,0.0004121883,-0.0016216204,9.7937336483,0.0019566015,-0.0000346188,-0.1745159345
558967.2800241710,-0.0000257555,-0.0063519001,9.7938878018,0.0009143650,0.0000304849,-0.1744725442
558967.2900241710,-0.0002074700,0.0008163092,9.7937398393,0.0018046086,-0.0000020669,-0.1744508490
558967.3000241710,-0.0004822851,-0.0078787673,9.7932808714,0.0010989277,-0.0000346188,-0.1744400014
558967.3100241710,0.0008674994,-0.0000946837,9.7941880689,0.0015549062,-0.0000020669,-0.1744508490
558967.3200241710,0.0016551317,-0.0068026722,9.7940261462,0.0014354832,0.0000196343,-0.1745484773
558967.3300241710,-0.0000441119,-0.0007086125,9.7943479121,0.0012183507,-0.0000020669,-0.1744942393
558967.3400241710,-0.0001866766,-0.0048271173,9.7935847486,0.0018046086,-0.0000346188,-0.1744833917
558967.3500241711,0.0007297800,-0.0045184507,9.7938822952,0.0009252217,-0.0000020669,-0.1744833917
558967.3600241710,0.0014780619,-0.0020746159,9.7932670286,0.0019348882,0.0000087837,-0.1744833917
558967.3700241710,0.0013470300,-0.0066512570,9.7937237339,0.0007949421,0.0000196343,-0.1745159345
558967.3800241710,-0.0011257401,0.0006602389,9.7932898527,0.0019240316,-0.0000129176,-0.1744942393
558967.3900241710,-0.0004714619,-0.0094043143,9.7938902129,0.0010337880,-0.0000129176,-0.1744942393
558967.4000241710,0.0010116481,0.0014313496,9.7938824782,0.0016309026,0.0000196343,-0.1744942393
558967.4100241710,0.0018082616,-0.0069545739,9.7940248077,0.0014463399,-0.0000020669,-0.1744725442
558967.4200241710,-0.0003437988,-0.0017776209,9.7945024710,0.0011749241,0.0000087837,-0.1744833917
558967.4300241710,0.0005772738,-0.0042140916,9.7940362132,0.0018480352,-0.0000129176,-0.1744833917
558967.4400241710,-0.0006424105,-0.0043716207,9.7940462934,0.0008383686,-0.0000020669,-0.1744833917
558967.4500241710,0.0005568459,-0.0011630672,9.7929700400,0.0019891713,0.0000087837,-0.1744400014
558967.4600241710,0.0008935323,-0.0083307900,9.7934217533,0.0008926518,0.0000304849,-0.1744725442
558967.4700241711,0.0007083630,0.0009725183,9.7938848064,0.0018480352,-0.0000454694,-0.1744725442
558967.4800241709,0.0019601442,-0.0074113905,9.7937183102,0.0011857808,0.0000087837,-0.1745159345
558967.4900241710,0.0014716325,0.0008231178,9.7938783930,0.0014680531,0.0000196343,-0.1744616966
558967.5000241710,0.0001309438,-0.0074189632,9.7938860448,0.0014680531,-0.0000020669,-0.1744833917
558967.5100241710,-0.0006476214,-0.0014739565,9.7948101675,0.0011857808,-0.0000020669,-0.1745159345
558967.5200241710,-0.0003397491,-0.0040652469,9.7938913856,0.0017937520,-0.0000563201,-0.1745159345
558967.5300241710,0.0007213365,-0.0036030114,9.7932726747,0.0009252217,0.0000196343,-0.1745376297
558967.5400241710,-0.0000454451,-0.0019284806,9.7935848052,0.0020108846,0.0000196343,-0.1745050869
558967.5500241710,0.0012016341,-0.0084822053,9.7937241656,0.0008492253,0.0000087837,-0.1744725442
558967.5600241710,0.0011647206,0.0006694792,9.7935758412,0.0018371785,-0.0000346188,-0.1744942393
558967.5700241710,0.0005909282,-0.0080271951,9.7938819595,0.0011314976,-0.0000129176,-0.1744291538
558967.5800241710,0.0004153636,-0.0002493642,9.7948018444,0.0014789098,0.0000087837,-0.1744183062
558967.5900241710,0.0001236615,-0.0071135622,9.7931236355,0.0015331929,-0.0000020669,-0.1744508490
558967.6000241711,0.0004128119,-0.0014691629,9.7938862278,0.0011532109,-0.0000129176,-0.1744074586
558967.6100241710,0.0010330364,-0.0043646038,9.7937273177,0.0018263219,-0.0000129176,-0.1744616966
558967.6200241710,-0.0003289832,-0.0062007626,9.7941954286,0.0009143650,0.0000087837,-0.1744833917
558967.6300241710,0.0005604728,-0.0014682599,9.7932749200,0.0020000280,-0.0000020669,-0.1744942393
558967.6400241710,0.0011939862,-0.0055844022,9.7941830202,0.0008383686,0.0000087837,-0.1745267821
558967.6500241710,0.0019310220,0.0003674129,9.7938743775,0.0018806050,-0.0000346188,-0.1745050869
558967.6600241710,-0.0010864756,-0.0094065376,9.7932852488,0.0011206410,-0.0000020669,-0.1745376297
558967.6700241710,-0.0002032196,0.0006635740,9.7941972989,0.0014680531,0.0000087837,-0.1745593249
558967.6800241710,0.0010396665,-0.0051274467,9.7941844982,0.0016200459,0.0000087837,-0.1745593249
558967.6900241710,0.0017946358,-0.0028364860,9.7943317106,0.0009686482,0.0000087837,-0.1745484773
558967.7000241710,0.0002649503,-0.0036049567,9.7934289907,0.0019674581,-0.0000129176,-0.1745159345
558967.7100241710,-0.0004833889,-0.0066587603,9.7937389588,0.0008383686,0.0000087837,-0.1744725442
558967.7200241711,-0.0005143819,0.0006626706,9.7934372875,0.0019566015,-0.0000020669,-0.1744291538
558967.7300241709,0.0013547352,-0.0089390913,9.7935701778,0.0009795048,-0.0000129176,-0.1744074586
558967.7400241710,0.0022384141,-0.0008514130,9.7935662625,0.0017177556,-0.0000020669,-0.1744508490
558967.7500241710,-0.0009373955,-0.0072708132,9.7938949957,0.0013594868,-0.0000346188,-0.1744942393
558967.7600241710,-0.0009629482,-0.0004071714,9.7940506445,0.0013160603,-0.0000020669,-0.1745376297
558967.7700241710,0.0016527521,-0.0061925646,9.7940264252,0.0016200459,-0.0000020669,-0.1745267821
558967.7800241710,0.0031667117,-0.0042032536,9.7935571154,0.0010337880,0.0000196343,-0.1745376297
558967.7900241710,-0.0001956290,-0.0028441980,9.7934331457,0.0019240316,-0.0000020669,-0.1745376297
558967.8000241710,-0.0015540792,-0.0055955183,9.7939008380,0.0008709385,-0.0000020669,-0.1745267821
558967.8100241710,0.0007179677,-0.0005529592,9.7943416381,0.0019674581,-0.0000346188,-0.1744725442
558967.8200241710,0.0024249453,-0.0086298688,9.7940189654,0.0009252217,0.0000304849,-0.1744942393
558967.8300241710,0.0013130337,0.0011278241,9.7932697622,0.0017828954,-0.0000346188,-0.1744833917
558967.8400241710,-0.0010875507,-0.0078815462,9.7938959854,0.0012183507,0.0000087837,-0.1744508490
558967.8500241711,-0.0000471438,-0.0005559467,9.7940429623,0.0014137700,-0.0000020669,-0.1744833917
558967.8600241710,0.0016520998,-0.0066500064,9.7937211964,0.0016526158,-0.0000129176,-0.1744833917
558967.8700241710,0.0025572817,-0.0031383440,9.7941727177,0.0010337880,0.0000304849,-0.1744833917
558967.8800241710,-0.0003481926,-0.0031498076,9.7932817651,0.0019674581,-0.0000346188,-0.1745050869
558967.8900241710,-0.0006377086,-0.0062018048,9.7937404368,0.0008492253,0.0000087837,-0.1744833917
558967.9000241710,0.0014697617,0.0003657454,9.7934206544,0.0019783147,-0.0000020669,-0.1745376297
558967.9100241710,0.0024201286,-0.0080196223,9.7937142249,0.0009469349,0.0000087837,-0.1744725442
558967.9200241710,0.0005552045,0.0008194356,9.7937334957,0.0017394689,-0.0000129176,-0.1745159345
558967.9300241710,-0.0013914594,-0.0084928350,9.7937457341,0.0012400639,-0.0000129176,-0.1744833917
558967.9400241710,0.0008722874,-0.0010099146,9.7943401601,0.0014789098,0.0000087837,-0.1745267821
558967.9500241710,0.0024190248,-0.0067996153,9.7941723123,0.0015331929,-0.0000020669,-0.1744942393
558967.9600241720,0.0025422941,-0.0005451086,9.7935638645,0.0011314976,0.0000304849,-0.1745376297
558967.9700241720,-0.0009397178,-0.0060507368,9.7942005733,0.0017937520,-0.0000454694,-0.1745050869
558967.9800241720,-0.0003404013,-0.0045226888,9.7935861568,0.0008926518,-0.0000129176,-0.1744074586
558967.9900241720,0.0017826515,-0.0007009008,9.7938751579,0.0020000280,0.0000196343,-0.1744400014
558968.0000241720,0.0016539419,-0.0064976184,9.7940262857,0.0008600819,0.0000304849,-0.1744616966
558968.0100241720,-0.0009666324,-0.0007119475,9.7934404659,0.0018806050,-0.0000346188,-0.1747545816
558968.0200241720,-0.0007747470,-0.0098631456,9.7938925411,0.0011206410,-0.0000020669,-0.1745159345
558968.0300241720,0.0017755125,0.0011294222,9.7938759950,0.0015657628,-0.0000020669,-0.1745050869
558968.0400241720,0.0016533757,-0.0060401071,9.7941790047,0.0013920567,0.0000196343,-0.1745267821
558968.0500241719,0.0001094982,-0.0022329786,9.7937359067,0.0012400639,-0.0000020669,-0.1745267821
558968.0600241720,-0.0006347340,-0.0069644394,9.7937400880,0.0017394689,-0.0000454694,-0.1745484773
558968.0700241720,0.0017916039,-0.0026838202,9.7940267609,0.0010229313,0.0000087837,-0.1745159345
558968.0800241720,0.0011748915,-0.0013135096,9.7938799539,0.0019674581,0.0000087837,-0.1745050869
558968.0900241720,0.0007386178,-0.0077213076,9.7934233010,0.0007840855,0.0000304849,-0.1745050869
558968.1000241720,-0.0000484484,-0.0014708304,9.7934325047,0.0019348882,-0.0000129176,-0.1745159345
558968.1100241720,0.0009008721,-0.0080262223,9.7944894611,0.0009795048,-0.0000346188,-0.1744508490
558968.1200241720,0.0011708705,0.0012791008,9.7946436885,0.0017068990,0.0000196343,-0.1744183062
558968.1300241720,0.0004414252,-0.0081804861,9.7941881780,0.0013703435,0.0000196343,-0.1744400014
558968.1400241720,-0.0001973564,-0.0017766484,9.7937386535,0.0012726338,-0.0000020669,-0.1744183062
558968.1500241720,0.0002720893,-0.0054352797,9.7934281536,0.0018154653,-0.0000563201,-0.1744291538
558968.1600241720,0.0030124207,-0.0034413137,9.7937112427,0.0008817951,0.0000087837,-0.1746027153
558968.1700241721,0.0005622862,-0.0016208562,9.7934273600,0.0020000280,-0.0000020669,-0.1746461057
558968.1800241719,0.0018142394,-0.0081748586,9.7941767594,0.0008492253,0.0000413356,-0.1745376297
558968.1900241720,-0.0008115744,0.0002034921,9.7942021645,0.0019240316,-0.0000563201,-0.1744942393
558968.2000241720,0.0015103881,-0.0081761786,9.7943318066,0.0010989277,0.0000087837,-0.1744508490
558968.2100241720,0.0016260095,0.0009761311,9.7941822135,0.0015549062,0.0000087837,-0.1744508490
558968.2200241720,0.0008930234,-0.0072633099,9.7938797709,0.0015440495,0.0000087837,-0.1744074586
558968.2300241720,-0.0001938156,-0.0029967943,9.7935855857,0.0010989277,0.0000087837,-0.1744942393
558968.2400241720,0.0007201467,-0.0032979576,9.7932728142,0.0018806050,-0.0000563201,-0.1744833917
558968.2500241720,0.0017950300,-0.0051239037,9.7932630960,0.0008600819,0.0000087837,-0.1745159345
558968.2600241720,0.0022468003,-0.0023768211,9.7938705844,0.0020000280,0.0000196343,-0.1744833917
558968.2700241720,-0.0004767588,-0.0074216032,9.7941961392,0.0009360783,0.0000087837,-0.1745267821
558968.2800241720,0.0000946252,0.0015801943,9.7937376506,0.0018154653,-0.0000346188,-0.1745050869
558968.2900241720,0.0006000527,-0.0081802080,9.7949494581,0.0011206410,-0.0000020669,-0.1745159345
558968.3000241719,0.0016403735,-0.0017695617,9.7946384872,0.0015549062,0.0000087837,-0.1744616966
558968.3100241720,0.0010389283,-0.0064998417,9.7934213216,0.0014680531,0.0000196343,-0.1744942393
558968.3200241720,-0.0000484197,-0.0011658460,9.7935851540,0.0011749241,0.0000196343,-0.1744725442
558968.3300241720,-0.0004899330,-0.0049809642,9.7937397261,0.0018154653,-0.0000563201,-0.1745484773
558968.3400241720,0.0022598885,-0.0057324133,9.7938690498,0.0009143650,0.0000196343,-0.1744833917
558968.3500241720,0.0007148785,-0.0010102622,9.7937313898,0.0020217412,0.0000196343,-0.1744616966
558968.3600241720,-0.0006281325,-0.0080322667,9.7940446192,0.0008492253,0.0000196343,-0.1744616966
558968.3700241720,-0.0006621001,0.0000517988,9.7937432968,0.0018697484,-0.0000563201,-0.1744942393
558968.3800241720,0.0005879823,-0.0069595761,9.7940349576,0.0011206410,-0.0000129176,-0.1744725442
558968.3900241720,0.0004153063,-0.0008593330,9.7944965459,0.0015440495,0.0000087837,-0.1744400014
558968.4000241720,0.0016569452,-0.0069552686,9.7941785862,0.0015549062,0.0000087837,-0.1744183062
558968.4100241720,0.0008601023,-0.0010092203,9.7928150626,0.0011423543,-0.0000020669,-0.1744725442
558968.4200241721,0.0002727416,-0.0049778378,9.7937333824,0.0017611821,-0.0000346188,-0.1745050869
558968.4300241719,0.0015014070,-0.0064982437,9.7940275544,0.0009795048,0.0000196343,-0.1745376297
558968.4400241720,0.0020864168,-0.0016145340,9.7932621629,0.0019566015,-0.0000129176,-0.1744942393
558968.4500241720,0.0013471447,-0.0054313194,9.7943343310,0.0008492253,-0.0000020669,-0.1744833917
558968.4600241720,0.0005635047,-0.0016209257,9.7935798698,0.0019131749,-0.0000346188,-0.1745050869
558968.4700241720,0.0013564913,-0.0097016565,9.7934173193,0.0010446446,0.0000087837,-0.1745376297
558968.4800241720,0.0019353871,0.0014346152,9.7949424341,0.0017068990,-0.0000020669,-0.1744833917
558968.4900241720,0.0005872440,-0.0083319711,9.7932717810,0.0013160603,0.0000196343,-0.1744725442
558968.5000241720,-0.0000454451,-0.0019284806,9.7935848052,0.0012943471,-0.0000020669,-0.1745267821
558968.5100241720,0.0010371722,-0.0057372766,9.7935741802,0.0017286122,-0.0000454694,-0.1745159345
558968.5200241720,0.0010307428,-0.0028395429,9.7941855446,0.0010012181,0.0000196343,-0.1745159345
558968.5300241720,0.0011789699,-0.0032961512,9.7934215178,0.0019783147,-0.0000237682,-0.1744616966
558968.5400241720,0.0012010678,-0.0080246940,9.7938768846,0.0008383686,0.0000304849,-0.1744508490
558968.5500241719,0.0017784584,0.0000618032,9.7937229970,0.0019891713,-0.0000346188,-0.1744616966
558968.5600241720,-0.0001669583,-0.0089455524,9.7940403944,0.0009795048,-0.0000129176,-0.1744291538
558968.5700241720,0.0007101765,0.0008199220,9.7940372464,0.0016526158,0.0000087837,-0.1744616966
558968.5800241720,0.0012003582,-0.0090921046,9.7932663573,0.0013812001,-0.0000020669,-0.1745050869
558968.5900241720,0.0016282171,-0.0014638829,9.7932660389,0.0012183507,-0.0000020669,-0.1745376297
558968.6000241720,0.0014954865,-0.0046679901,9.7941809013,0.0018697484,-0.0000020669,-0.1745484773
558968.6100241720,0.0013465785,-0.0049738081,9.7944870500,0.0008709385,-0.0000020669,-0.1745050869
558968.6200241720,0.0016306541,-0.0014640218,9.7935710584,0.0020108846,-0.0000020669,-0.1745050869
558968.6300241720,0.0019721859,-0.0089370068,9.7944801614,0.0008492253,0.0000087837,-0.1745376297
558968.6400241720,0.0014745784,-0.0002445012,9.7937253949,0.0018697484,-0.0000129176,-0.1745376297
558968.6500241720,-0.0001729648,-0.0080302520,9.7937357935,0.0011423543,-0.0000020669,-0.1745267821
558968.6600241720,0.0004093284,0.0003609518,9.7943445942,0.0015331929,0.0000196343,-0.1744942393
558968.6700241721,0.0012028526,-0.0084822747,9.7938766753,0.0015331929,-0.0000020669,-0.1744833917
558968.6800241719,0.0026989934,-0.0016121718,9.7935621075,0.0011966374,0.0000087837,-0.1744942393
558968.6900241720,0.0001154186,-0.0040632322,9.7935825599,0.0017937520,-0.0000346188,-0.1744725442
558968.7000241720,-0.0021672507,-0.0054453536,9.7936009632,0.0009252217,0.0000087837,-0.1744508490
558968.7100241720,0.0010312804,-0.0036020386,9.7938801763,0.0019783147,-0.0000237682,-0.1744291538
558968.7200241720,0.0036308319,-0.0061841582,9.7933998926,0.0009143650,0.0000304849,-0.1744291538
558968.7300241720,0.0011659391,0.0006694098,9.7937283509,0.0019131749,-0.0000346188,-0.1744616966
558968.7400241720,-0.0007789401,-0.0091004415,9.7937403801,0.0010880711,0.0000087837,-0.1744833917
558968.7500241720,-0.0003528372,-0.0007096547,9.7938929203,0.0016417592,-0.0000020669,-0.1745267821
558968.7600241720,0.0031773916,-0.0072537225,9.7934032105,0.0014680531,0.0000196343,-0.1745050869
558968.7700241720,0.0020882589,-0.0014621460,9.7935672522,0.0010663578,0.0000087837,-0.1745484773
558968.7800241720,-0.0010994777,-0.0051359922,9.7937447313,0.0019131749,-0.0000346188,-0.1744942393
558968.7900241720,-0.0018514151,-0.0075796187,9.7939024686,0.0008492253,-0.0000020669,-0.1744833917
558968.8000241719,0.0017796482,-0.0002432506,9.7937228575,0.0020434545,-0.0000346188,-0.1744183062
558968.8100241720,0.0030302682,-0.0080171212,9.7937091500,0.0009469349,0.0000304849,-0.1744508490
558968.8200241720,-0.0009689834,0.0002031446,9.7935933942,0.0017503255,0.0000087837,-0.1744833917
558968.8300241720,-0.0016947731,-0.0092566507,9.7935954130,0.0013052037,-0.0000346188,-0.1744508490
558968.8400241720,0.0007131511,0.0000572874,9.7940368976,0.0013703435,0.0000087837,-0.1743966110
558968.8500241720,0.0033342916,-0.0061858948,9.7944699984,0.0016417592,0.0000087837,-0.1744291538
558968.8600241720,0.0024034996,-0.0034438842,9.7938688274,0.0010555012,0.0000087837,-0.1744508490
558968.8700241720,-0.0012573669,-0.0037638753,9.7937466278,0.0018914617,-0.0000346188,-0.1744725442
558968.8800241720,-0.0004833602,-0.0063537759,9.7938916080,0.0009469349,0.0000196343,-0.1744616966
558968.8900241720,0.0020913195,-0.0013098274,9.7940248512,0.0019240316,-0.0000129176,-0.1744833917
558968.9000241720,0.0042445410,-0.0070968186,9.7933943991,0.0009143650,0.0000413356,-0.1744942393
558968.9100241720,-0.0011209520,-0.0002549920,9.7934419440,0.0018371785,-0.0000129176,-0.1744942393
558968.9200241721,-0.0006239968,-0.0094049395,9.7938914816,0.0011097844,-0.0000020669,-0.1745159345
558968.9300241719,0.0019334590,0.0003672740,9.7941793970,0.0016309026,-0.0000129176,-0.1745376297
558968.9400241720,0.0025745630,-0.0072566402,9.7943233440,0.0014680531,-0.0000020669,-0.1747003436
558968.9500241720,0.0014822837,-0.0025323355,9.7935718388,0.0012074940,0.0000304849,-0.1746569532
558968.9600241720,-0.0012544783,-0.0054414630,9.7932883312,0.0018154653,-0.0000129176,-0.1745376297
558968.9700241720,0.0016431761,-0.0043621027,9.7937222428,0.0009252217,-0.0000129176,-0.1744833917
558968.9800241720,0.0023938663,-0.0022233911,9.7932593464,0.0020000280,-0.0000020669,-0.1744183062
558968.9900241720,0.0024219420,-0.0081722187,9.7938666649,0.0008926518,0.0000304849,-0.1743966110
558969.0000241720,-0.0000555874,0.0003594926,9.7934333418,0.0019023183,-0.0000454694,-0.1744291538
558969.0100241720,0.0005921754,-0.0077222801,9.7941871186,0.0011097844,-0.0000020669,-0.1747545816
558969.0200241720,0.0025490102,-0.0003929984,9.7944789928,0.0015657628,0.0000087837,-0.1744942393
558969.0300241730,0.0016629230,-0.0081755534,9.7943305379,0.0014789098,-0.0000020669,-0.1745376297
558969.0400241730,0.0004134355,-0.0013167054,9.7940388073,0.0011423543,0.0000196343,-0.1745484773
558969.0500241730,0.0002709568,-0.0045202571,9.7937335917,0.0018371785,-0.0000454694,-0.1745376297
558969.0600241730,0.0011939862,-0.0055844022,9.7941830202,0.0009143650,0.0000196343,-0.1744616966
558969.0700241730,0.0020930182,-0.0026823613,9.7935666941,0.0020108846,-0.0000020669,-0.1744616966
558969.0800241730,0.0010388709,-0.0071098105,9.7931160231,0.0009143650,0.0000304849,-0.1744508490
558969.0900241730,-0.0005113787,0.0002050204,9.7935895880,0.0018914617,-0.0000346188,-0.1744508490
558969.1000241730,0.0015084313,-0.0095485043,9.7934161203,0.0010663578,0.0000087837,-0.1744508490
558969.1100241730,0.0026942914,0.0002180123,9.7938679641,0.0016091893,0.0000087837,-0.1744725442
558969.1200241731,0.0010473144,-0.0080252498,9.7937256436,0.0014571965,-0.0000020669,-0.1744725442
558969.1300241729,0.0004212554,-0.0023846022,9.7944958483,0.0012074940,-0.0000346188,-0.1744616966
558969.1400241730,0.0021007521,-0.0046652112,9.7935657873,0.0018697484,-0.0000346188,-0.1744183062
558969.1500241730,0.0027109778,-0.0037477569,9.7940186602,0.0009252217,0.0000196343,-0.1744833917
558969.1600241730,-0.0001974138,-0.0023866172,9.7934333549,0.0019783147,0.0000087837,-0.1744942393
558969.1700241730,0.0002845539,-0.0089433294,9.7932740394,0.0008600819,-0.0000020669,-0.1745593249
558969.1800241730,0.0025352124,0.0018951831,9.7938700001,0.0018697484,-0.0000020669,-0.1745593249
558969.1900241730,0.0033347718,-0.0075583593,9.7938593315,0.0012400639,0.0000196343,-0.1745484773
558969.2000241730,0.0002590872,-0.0011647343,9.7938876361,0.0013703435,0.0000196343,-0.1745376297
558969.2100241730,-0.0007812050,-0.0072703963,9.7943512562,0.0017177556,-0.0000129176,-0.1744942393
558969.2200241730,0.0030179184,-0.0032891340,9.7944738612,0.0009686482,-0.0000129176,-0.1744942393
558969.2300241730,0.0017861636,-0.0022260311,9.7935694409,0.0019891713,-0.0000346188,-0.1744942393
558969.2400241731,0.0022627770,-0.0074100010,9.7934107532,0.0008275120,0.0000196343,-0.1745050869
558969.2500241729,0.0004092137,-0.0008589858,9.7937339971,0.0019674581,-0.0000454694,-0.1744616966
558969.2600241730,0.0005932505,-0.0092472715,9.7935763820,0.0010555012,0.0000196343,-0.1744833917
558969.2700241730,0.0022343070,0.0008262442,9.7938720493,0.0016634725,-0.0000346188,-0.1744725442
558969.2800241730,0.0021108370,-0.0075631532,9.7934119522,0.0014354832,0.0000087837,-0.1744725442
558969.2900241730,0.0002626567,-0.0020798958,9.7938872175,0.0012726338,0.0000087837,-0.1744725442
558969.3000241730,0.0001353090,-0.0063517609,9.7949541014,0.0017177556,-0.0000129176,-0.1744074586
558969.3100241730,0.0013369451,-0.0037533150,9.7938775690,0.0010120747,-0.0000020669,-0.1744833917
558969.3200241730,0.0014792517,-0.0023796697,9.7932668891,0.0019023183,-0.0000129176,-0.1745484773
558969.3300241730,0.0004373182,-0.0065028289,9.7944939649,0.0008926518,0.0000087837,-0.1745267821
558969.3400241730,0.0005761126,-0.0036040533,9.7941890020,0.0020108846,-0.0000020669,-0.1745159345
558969.3500241730,0.0022634866,-0.0063425904,9.7940212805,0.0009469349,-0.0000020669,-0.1745267821
558969.3600241730,0.0019268289,0.0011301169,9.7937222165,0.0017828954,-0.0000020669,-0.1745376297
558969.3700241731,0.0004455323,-0.0098581433,9.7938823912,0.0012183507,-0.0000346188,-0.1744942393
558969.3800241729,0.0002650363,-0.0026900035,9.7938869385,0.0014463399,-0.0000129176,-0.1744183062
558969.3900241730,0.0021061064,-0.0060379535,9.7935651595,0.0016526158,0.0000087837,-0.1744616966
558969.4000241730,0.0013328667,-0.0017706734,9.7943360051,0.0010663578,0.0000087837,-0.1744291538
558969.4100241730,0.0005790586,-0.0046716723,9.7940360039,0.0019023183,-0.0000129176,-0.1744508490
558969.4200241730,0.0018106126,-0.0078696659,9.7938718794,0.0009143650,-0.0000020669,-0.1744833917
558969.4300241730,0.0028491773,-0.0006964544,9.7937137670,0.0020108846,-0.0000020669,-0.1744725442
558969.4400241730,0.0008936184,-0.0074158368,9.7938797011,0.0008817951,0.0000196343,-0.1745701725
558969.4500241730,-0.0002027393,-0.0007088906,9.7935866320,0.0018263219,-0.0000129176,-0.1745701725
558969.4600241730,0.0001417097,-0.0095544789,9.7941900877,0.0012183507,-0.0000020669,-0.1744833917
558969.4700241730,0.0020835282,0.0000630538,9.7937204595,0.0015223363,-0.0000020669,-0.1745050869
558969.4800241730,0.0013464351,-0.0064987301,9.7937238037,0.0015223363,0.0000196343,-0.1744942393
558969.4900241731,0.0025518414,-0.0026805549,9.7937153977,0.0011314976,-0.0000129176,-0.1745159345
558969.5000241729,0.0005831943,-0.0060443451,9.7938828664,0.0018154653,-0.0000129176,-0.1745050869
558969.5100241730,0.0007333782,-0.0051286278,9.7940345259,0.0009469349,0.0000087837,-0.1744942393
558969.5200241730,0.0017808094,-0.0008532889,9.7935700687,0.0019783147,-0.0000020669,-0.1744833917
558969.5300241730,0.0024280059,-0.0084775502,9.7944765645,0.0008709385,0.0000196343,-0.1744400014
558969.5400241730,0.0025501140,-0.0016130054,9.7940209055,0.0019348882,-0.0000237682,-0.1744074586
558969.5500241730,0.0024237268,-0.0086297994,9.7938664557,0.0011314976,-0.0000129176,-0.1744725442
558969.5600241730,0.0007072019,0.0015825566,9.7940375952,0.0015549062,-0.0000020669,-0.1745050869
558969.5700241730,-0.0001765343,-0.0071150905,9.7937362120,0.0015331929,0.0000087837,-0.1745050869
558969.5800241730,0.0007255296,-0.0043657155,9.7934248357,0.0010989277,0.0000087837,-0.1745376297
558969.5900241730,0.0013369164,-0.0040582994,9.7937249198,0.0019348882,-0.0000454694,-0.1745593249
558969.6000241730,0.0017956823,-0.0046664618,9.7935683248,0.0008817951,0.0000304849,-0.1745484773
558969.6100241730,0.0005617486,-0.0008583605,9.7937327283,0.0019891713,-0.0000020669,-0.1745484773
558969.6200241731,0.0004406870,-0.0095528812,9.7934250014,0.0009143650,0.0000196343,-0.1744725442
558969.6300241729,0.0010205432,-0.0011615385,9.7937287826,0.0018371785,-0.0000020669,-0.1745050869
558969.6400241730,0.0022598024,-0.0066473664,9.7934111020,0.0011423543,-0.0000020669,-0.1745159345
558969.6500241730,0.0011725979,0.0002115513,9.7943381807,0.0015331929,-0.0000020669,-0.1744833917
558969.6600241730,0.0021204704,-0.0087836463,9.7940214331,0.0014897664,0.0000087837,-0.1744942393
558969.6700241730,0.0007281100,-0.0028409324,9.7944931016,0.0012292073,0.0000087837,-0.1744725442
558969.6800241730,0.0004252765,-0.0049772126,9.7937321136,0.0017937520,-0.0000129176,-0.1745050869
558969.6900241730,0.0011897931,-0.0048216981,9.7940308592,0.0009252217,-0.0000020669,-0.1744616966
558969.7000241730,0.0010264924,-0.0026868077,9.7937280850,0.0020108846,-0.0000020669,-0.1744725442
558969.7100241730,0.0019649609,-0.0080216370,9.7940230507,0.0008709385,0.0000196343,-0.1747003436
558969.7200241730,0.0008608693,0.0006681592,9.7937308884,0.0018914617,-0.0000346188,-0.1746461057
558969.7300241730,0.0007458141,-0.0089416619,9.7937277625,0.0011423543,0.0000087837,-0.1745484773
558969.7400241731,0.0025428603,-0.0010026200,9.7934111455,0.0015874761,0.0000196343,-0.1745267821
558969.7500241729,0.0018069284,-0.0081744420,9.7932617009,0.0015331929,-0.0000020669,-0.1744833917
558969.7600241730,0.0011845822,-0.0019240339,9.7947947334,0.0010989277,0.0000196343,-0.1744725442
558969.7700241730,-0.0004899330,-0.0049809642,9.7937397261,0.0018697484,-0.0000454694,-0.1745050869
558969.7800241730,0.0005789152,-0.0061965943,9.7932727576,0.0008926518,0.0000087837,-0.1744942393
558969.7900241730,0.0016330625,-0.0017691451,9.7937234286,0.0020108846,-0.0000020669,-0.1745050869
558969.8000241730,0.0027186543,-0.0063405757,9.7937124548,0.0009469349,0.0000087837,-0.1744942393
558969.8100241730,0.0016307115,-0.0008540530,9.7938763569,0.0018697484,-0.0000346188,-0.1744725442
558969.8200241730,0.0005950640,-0.0093998679,9.7937288220,0.0011097844,0.0000087837,-0.1744616966
558969.8300241730,0.0020852843,-0.0006995114,9.7935676010,0.0016417592,-0.0000020669,-0.1744725442
558969.8400241730,0.0016532897,-0.0069550603,9.7937210569,0.0013703435,0.0000196343,-0.1744833917
558969.8500241730,0.0004146540,-0.0013167749,9.7941913171,0.0012834904,0.0000087837,-0.1744942393
558969.8600241730,-0.0000263504,-0.0061993732,9.7938878716,0.0017937520,-0.0000454694,-0.1744833917
558969.8700241731,0.0010324128,-0.0045170613,9.7935747382,0.0009577916,0.0000087837,-0.1745159345
558969.8800241729,0.0027032725,-0.0014599226,9.7941722163,0.0020217412,-0.0000020669,-0.1744833917
558969.8900241730,0.0022657516,-0.0081726356,9.7934104044,0.0008275120,0.0000304849,-0.1744833917
558969.9000241730,0.0011761100,-0.0013135790,9.7940324636,0.0019240316,-0.0000129176,-0.1745159345
558969.9100241730,0.0024189388,-0.0077145685,9.7937143645,0.0010989277,0.0000087837,-0.1745267821
558969.9200241730,0.0005575842,0.0002093279,9.7937332166,0.0015766194,-0.0000020669,-0.1745267821
558969.9300241730,0.0008977541,-0.0087885097,9.7937265635,0.0014789098,-0.0000020669,-0.1744942393
558969.9400241730,0.0019435726,-0.0022256836,9.7941782112,0.0012292073,-0.0000020669,-0.1744508490
558969.9500241730,0.0004289033,-0.0052824053,9.7940369937,0.0018480352,-0.0000346188,-0.1744074586
558969.9600241730,0.0028695192,-0.0046624320,9.7943219924,0.0008817951,0.0000413356,-0.1744291538
558969.9700241730,0.0010234604,-0.0025341419,9.7934231353,0.0020217412,-0.0000346188,-0.1744291538
558969.9800241730,0.0022723817,-0.0089354785,9.7938675849,0.0008709385,0.0000196343,-0.1744616966
558969.9900241731,0.0016271993,0.0006710773,9.7941820740,0.0018806050,-0.0000129176,-0.1744833917
558970.0000241729,0.0021162200,-0.0086309111,9.7935639736,0.0012183507,-0.0000020669,-0.1745159345
558970.0100241730,0.0008728536,-0.0014674259,9.7941874411,0.0014897664,0.0000196343,-0.1747437340
558970.0200241730,0.0013487574,-0.0077188065,9.7934182261,0.0016417592,-0.0000020669,-0.1745159345
558970.0300241730,0.0027044050,-0.0023749453,9.7938667782,0.0010446446,-0.0000020669,-0.1745159345
558970.0400241730,0.0007250207,-0.0032982354,9.7938828533,0.0019023183,-0.0000020669,-0.1744616966
558970.0500241730,-0.0000264364,-0.0071143264,9.7934299238,0.0008709385,0.0000087837,-0.1744508490
