t(s),acc_x,acc_y,acc_z,gyro_x,gyro_y,gyro_z
558383.0000236270,9.7958032236,0.0013263435,-0.0002259395,0.0000241214,0.0000738874,0.0000760844
558383.0100236270,9.7948849536,0.0011702733,-0.0006759261,0.0000241214,0.0000738874,0.0000435417
558383.0200236270,9.7947294727,0.0022372670,-0.0005216593,0.0000241214,0.0000738874,0.0000435417
558383.0300236270,9.7954988634,0.0023925036,0.0003871253,0.0000458347,0.0000955887,0.0000652368
558383.0400236270,9.7950502398,0.0007126928,0.0006951837,0.0000241214,0.0000738874,0.0000869320
558383.0500236270,9.7954962830,0.0008677205,-0.0006811405,0.0000458347,0.0000630368,0.0000435417
558383.0600236270,9.7951894858,0.0019340195,-0.0003730952,0.0000132648,0.0000955887,0.0000435417
558383.0700236270,9.7953535822,0.0017814929,0.0009981541,0.0000132648,0.0000630368,0.0000977796
558383.0800236270,9.7959654779,0.0010214289,0.0008402206,0.0000132648,0.0000738874,0.0000760844
558383.0900236270,9.7950435810,0.0011705513,0.0000853540,0.0000349781,0.0000630368,0.0000109989
558383.1000236270,9.7956452484,0.0017835073,-0.0006819907,0.0000675479,0.0000738874,0.0000652368
558383.1100236271,9.7951901381,0.0023914614,-0.0000678665,0.0000458347,0.0000738874,0.0000543893
558383.1200236270,9.7961161994,0.0011746505,0.0006865119,0.0000132648,0.0000738874,0.0000326941
558383.1300236270,9.7956542869,0.0007155411,-0.0000724400,0.0000458347,0.0000630368,0.0000543893
558383.1400236270,9.7954915524,0.0023929203,-0.0005279332,0.0000241214,0.0000738874,0.0000760844
558383.1500236270,9.7951949548,0.0017812149,0.0002368740,0.0000349781,0.0000738874,0.0000543893
558383.1600236270,9.7959672053,-0.0000461206,0.0005347128,0.0000458347,0.0000738874,0.0000543893
558383.1700236270,9.7954993723,0.0013250235,-0.0000708922,0.0000349781,0.0000738874,0.0000435417
558383.1800236270,9.7954891727,0.0030030279,-0.0005276542,0.0000349781,0.0000738874,0.0000326941
558383.1900236270,9.7954981538,0.0013250930,-0.0002234020,0.0000132648,0.0000738874,0.0000977796
558383.2000236270,9.7956549105,0.0008679986,0.0000801395,0.0000241214,0.0000847381,0.0000326941
558383.2100236270,9.7953462138,0.0011719408,-0.0002222030,0.0000241214,0.0000738874,0.0000543893
558383.2200236270,9.7954915237,0.0020879359,-0.0006805825,0.0000349781,0.0000955887,0.0000760844
558383.2300236271,9.7951943312,0.0016287574,0.0000842945,0.0000892612,0.0000738874,0.0000760844
558383.2400236269,9.7953553383,0.0010189278,0.0008452955,0.0004041035,0.0000738874,0.0000326941
558383.2500236270,9.7962705191,0.0007176951,0.0006850339,0.0013920567,0.0000521862,0.0000652368
558383.2600236270,9.7945884133,0.0011685366,0.0003941797,0.0033353934,0.0000738874,0.0000977796
558383.2700236270,9.7950436097,0.0014755357,0.0002380033,0.0047576118,0.0000521862,0.0000869320
558383.2800236270,9.7956645725,-0.0000475101,0.0008422698,0.0060604073,0.0000738874,0.0001303224
558383.2900236270,9.7950538666,0.0004075001,0.0010000638,0.0072220667,0.0000521862,0.0000977796
558383.3000236270,9.7948837637,0.0014753271,-0.0006757866,0.0078734644,0.0000304849,0.0000869320
558383.3100236270,9.7956561290,0.0008679292,0.0002326493,0.0086985683,0.0000413356,0.0001628652
558383.3200236270,9.7953589651,0.0007137351,0.0011501755,0.0095453853,0.0000304849,0.0001411700
558383.3300236270,9.7958073880,0.0002586551,-0.0002264278,0.0101642132,0.0000304849,0.0000977796
558383.3400236270,9.7953419060,0.0007147072,-0.0009849611,0.0110653135,0.0000413356,0.0001845604
558383.3500236270,9.7953481419,0.0022392820,0.0005408341,0.0118904173,0.0000304849,0.0001411700
558383.3600236271,9.7956597272,0.0002577521,0.0003848800,0.0127480910,0.0000304849,0.0001520176
558383.3700236270,9.7955144459,-0.0003532586,0.0009959088,0.0139314636,0.0000196343,0.0001845604
558383.3800236270,9.7948850396,0.0020852264,-0.0002179783,0.0147022843,0.0000087837,0.0001628652
558383.3900236270,9.7953407735,0.0016297298,-0.0006795230,0.0155599580,-0.0000020669,0.0001845604
558383.4000236270,9.7958153513,0.0007156804,0.0009938596,0.0165696245,0.0000521862,0.0002387983
558383.4100236270,9.7953571804,0.0011713158,0.0011503848,0.0172535922,-0.0000129176,0.0001737128
558383.4200236270,9.7956603794,0.0007151940,0.0006901088,0.0182415454,0.0000196343,0.0001954080
558383.4300236270,9.7951924891,0.0014763693,-0.0002207948,0.0192186421,-0.0000346188,0.0002171032
558383.4400236270,9.7956537206,0.0011730525,0.0000802790,0.0198266133,0.0000413356,0.0001954080
558383.4500236270,9.7950562750,0.0001023769,0.0011524340,0.0210425558,-0.0000237682,0.0002387983
558383.4600236270,9.7952015562,0.0007133876,0.0005414053,0.0217699500,-0.0000129176,0.0002279508
558383.4700236270,9.7962553594,0.0014810240,-0.0008397149,0.0224322044,0.0000087837,0.0002387983
558383.4800236271,9.7959654206,0.0004114601,0.0005349221,0.0236264336,-0.0000346188,0.0002930363
558383.4900236269,9.7958086926,0.0011735389,0.0003840298,0.0242778313,-0.0000020669,0.0002387983
558383.5000236270,9.7958099111,0.0011734694,0.0005365396,0.0251137918,-0.0000237682,0.0002387983
558383.5100236270,9.7948910748,0.0014749105,0.0002392720,0.0262863078,-0.0000563201,0.0002713411
558383.5200236270,9.7953456762,0.0019344365,0.0000831653,0.0267531428,-0.0000237682,0.0002496459
558383.5300236270,9.7947511191,-0.0008138269,0.0006970237,0.0280885082,-0.0000780213,0.0003038839
558383.5400236270,9.7958086352,0.0005635701,0.0000787313,0.0290438916,-0.0000129176,0.0002821887
558383.5500236270,9.7953481133,0.0019342976,0.0003881848,0.0294564435,-0.0000671707,0.0002713411
558383.5600236270,9.7956603221,0.0001052252,0.0003848103,0.0303358305,0.0000087837,0.0003364267
558383.5700236270,9.7950368936,0.0013234255,-0.0006771250,0.0312477874,-0.0000563201,0.0002930363
558383.5800236270,9.7962693005,0.0007177645,0.0005325241,0.0320077514,-0.0000563201,0.0002713411
558383.5900236270,9.7948952965,0.0010171908,0.0005440822,0.0330608445,-0.0000888719,0.0003581219
558383.6000236270,9.7956525021,0.0011731219,-0.0000722307,0.0338642350,-0.0000563201,0.0003364267
558383.6100236271,9.7956519072,0.0013256488,-0.0000721610,0.0346350557,-0.0000888719,0.0003038839
558383.6200236270,9.7962765542,0.0001073791,0.0011422841,0.0359704211,-0.0000671707,0.0003581219
558383.6300236270,9.7961150096,0.0014797044,0.0006866514,0.0366001056,-0.0000563201,0.0003364267
558383.6400236270,9.7955036514,0.0014772727,0.0005392166,0.0375446324,-0.0000780213,0.0003255791
558383.6500236270,9.7951948401,0.0005612773,-0.0003737230,0.0383697362,-0.0000888719,0.0003798171
558383.6600236270,9.7951978720,0.0004086115,-0.0000687733,0.0389234243,-0.0000780213,0.0003581219
558383.6700236270,9.7950502398,0.0007126928,0.0006951837,0.0400525138,-0.0001105732,0.0003798171
558383.6800236270,9.7942839671,0.0013197436,0.0005492967,0.0409753273,-0.0000780213,0.0004015123
558383.6900236270,9.7962669496,0.0016328566,0.0006854524,0.0416918648,-0.0000997225,0.0003689695
558383.7000236270,9.7953522203,0.0002566404,0.0000823980,0.0427883843,-0.0000888719,0.0004015123
558383.7100236270,9.7951882386,0.0016291046,-0.0006782543,0.0435049219,-0.0001105732,0.0003798171
558383.7200236270,9.7953493031,0.0016292438,0.0003880453,0.0441671763,-0.0000780213,0.0004123598
558383.7300236271,9.7955151269,0.0004091677,0.0014537868,0.0453614055,-0.0000888719,0.0004232074
558383.7400236269,9.7958050944,0.0017837160,0.0002317991,0.0459693767,-0.0000780213,0.0004123598
558383.7500236270,9.7953504356,0.0007142211,0.0000826072,0.0469139035,-0.0001322744,0.0004232074
558383.7600236270,9.7953485935,0.0005618331,-0.0002224820,0.0480429929,-0.0000997225,0.0004449026
558383.7700236270,9.7945854961,0.0025411400,0.0006998270,0.0484989714,-0.0001322744,0.0004232074
558383.7800236270,9.7955066260,0.0007146381,0.0005388678,0.0493892150,-0.0001105732,0.0004340550
558383.7900236270,9.7947354506,0.0010169822,-0.0003697076,0.0505725876,-0.0001214238,0.0004665978
558383.8000236270,9.7950423625,0.0011706208,-0.0000671558,0.0512782685,-0.0001539757,0.0004449026
558383.8100236270,9.7949019840,0.0008643167,0.0013065613,0.0524290712,-0.0001214238,0.0004882930
558383.8200236270,9.7958068505,0.0010211508,0.0000789405,0.0531781786,-0.0001214238,0.0004774454
558383.8300236270,9.7964183233,0.0022435201,0.0008369724,0.0535147341,-0.0001322744,0.0004557502
558383.8400236280,9.7947451413,0.0004064579,0.0005450720,0.0549478092,-0.0001214238,0.0005208358
558383.8500236280,9.7948838498,0.0023902803,-0.0002178387,0.0556969166,-0.0001648263,0.0004665978
558383.8600236280,9.7956585086,0.0002578215,0.0002323703,0.0564134542,-0.0001648263,0.0004882930
558383.8700236280,9.7945913592,0.0001009177,0.0002411817,0.0575642569,-0.0001756769,0.0005316834
558383.8800236280,9.7953469234,0.0022393514,0.0003883243,0.0582265113,-0.0001648263,0.0004882930
558383.8900236280,9.7953541484,0.0013239816,0.0008454351,0.0592796043,-0.0001648263,0.0004991406
558383.9000236280,9.7955010997,0.0002574740,-0.0003764000,0.0601155648,-0.0001431250,0.0005533786
558383.9100236280,9.7945859476,0.0008636911,-0.0000634891,0.0605823998,-0.0001865275,0.0004991406
558383.9200236280,9.7955090057,0.0001045304,0.0005385888,0.0617332025,-0.0001322744,0.0005425310
558383.9300236281,9.7962645412,0.0019379798,0.0005330821,0.0627320124,-0.0001973782,0.0005750737
558383.9400236279,9.7962602908,0.0020907151,0.0000756226,0.0633616969,-0.0001322744,0.0005316834
558383.9500236280,9.7956572901,0.0002578910,0.0000798605,0.0644039333,-0.0001865275,0.0005859213
558383.9600236280,9.7955017806,0.0010199003,0.0000814780,0.0651313275,-0.0001865275,0.0005533786
558383.9700236280,9.7959515654,0.0020896728,-0.0003793692,0.0659130048,-0.0001865275,0.0005533786
558383.9800236280,9.7948940780,0.0010172603,0.0003915725,0.0671723738,-0.0002082288,0.0006076165
558383.9900236280,9.7950423912,0.0014756052,0.0000854935,0.0678020583,-0.0002190794,0.0005859213
558384.0000236280,9.7950526481,0.0004075696,0.0008475540,0.0686271621,-0.0002190794,0.0005750737
558384.0100236280,9.7945847578,0.0011687450,-0.0000633496,0.0697019685,-0.0002190794,0.0006184641
558384.0200236280,9.7951918942,0.0016288963,-0.0002207250,0.0704076494,-0.0002082288,0.0006293117
558384.0300236280,9.7955114140,-0.0002005928,0.0006909590,0.0713847460,-0.0002190794,0.0006076165
558384.0400236280,9.7958044421,0.0013262741,-0.0000734297,0.0723075595,-0.0001973782,0.0006293117
558384.0500236280,9.7945848438,0.0020836981,0.0003945983,0.0728829608,-0.0002407806,0.0006184641
558384.0600236279,9.7959617364,0.0001066840,-0.0000752565,0.0740446202,-0.0002082288,0.0006293117
558384.0700236280,9.7953510305,0.0005616942,0.0000825375,0.0748154409,-0.0002407806,0.0006401593
558384.0800236280,9.7955024616,0.0017823265,0.0005393561,0.0754342687,-0.0001973782,0.0006510069
558384.0900236280,9.7956483664,0.0025457947,0.0000809068,0.0767044944,-0.0002624819,0.0006618545
558384.1000236280,9.7962596672,0.0019382576,-0.0000769569,0.0773450355,-0.0001756769,0.0006510069
558384.1100236280,9.7953614021,0.0007135962,0.0014551951,0.0783221321,-0.0002950338,0.0006835497
558384.1200236280,9.7945871661,0.0008636217,0.0000890207,0.0793969384,-0.0002733325,0.0006727021
558384.1300236280,9.7957953177,0.0014792871,-0.0011409283,0.0798637735,-0.0002407806,0.0006510069
558384.1400236280,9.7955084968,0.0011720106,0.0009966063,0.0805911677,-0.0002516313,0.0007160925
558384.1500236280,9.7952076487,0.0007130404,0.0013039540,0.0817745403,-0.0002733325,0.0006943973
558384.1600236280,9.7953444291,0.0016295215,-0.0002219937,0.0824693645,-0.0002624819,0.0006510069
558384.1700236280,9.7959502036,0.0005648203,-0.0012951253,0.0834790311,-0.0002624819,0.0007269401
558384.1800236281,9.7962590436,0.0017858001,-0.0002295364,0.0844561277,-0.0002516313,0.0007377877
558384.1900236279,9.7952088959,0.0010179553,0.0016091131,0.0852052351,-0.0002624819,0.0006943973
558384.2000236280,9.7962686196,-0.0000446618,0.0000746460,0.0860954787,-0.0002516313,0.0007486352
558384.2100236280,9.7956423599,0.0034610951,-0.0002236941,0.0869531525,-0.0002950338,0.0007269401
558384.2200236280,9.7961101355,0.0014799821,0.0000766123,0.0878216828,-0.0002733325,0.0007486352
558384.2300236280,9.7953564421,-0.0002010792,0.0003872082,0.0889833421,-0.0002950338,0.0007811780
558384.2400236280,9.7954933084,0.0016303551,-0.0006807917,0.0896238833,-0.0002841831,0.0007160925
558384.2500236280,9.7958044421,0.0013262741,-0.0000734297,0.0905792666,-0.0003058844,0.0007486352
558384.2600236280,9.7950430148,0.0016280627,0.0002380730,0.0913609440,-0.0002733325,0.0008137208
558384.2700236280,9.7958081550,0.0019360346,0.0006893981,0.0919689152,-0.0003058844,0.0007594828
558384.2800236280,9.7953516254,0.0004091673,0.0000824677,0.0931197179,-0.0002733325,0.0007920256
558384.2900236280,9.7951882386,0.0016291046,-0.0006782543,0.0941076712,-0.0003275856,0.0008137208
558384.3000236280,9.7958009300,0.0028514044,0.0002322874,0.0947156424,-0.0002950338,0.0007594828
558384.3100236279,9.7950453084,0.0001030018,-0.0002201538,0.0958447319,-0.0003275856,0.0008245684
558384.3200236280,9.7950387357,0.0014758135,-0.0003720358,0.0966589791,-0.0003275856,0.0008028732
558384.3300236280,9.7951907043,0.0019339501,-0.0002205855,0.0973538033,-0.0003167350,0.0007811780
558384.3400236280,9.7956591896,0.0010202478,0.0006902483,0.0983634699,-0.0003167350,0.0008679588
558384.3500236280,9.7959600090,0.0011742336,0.0002302513,0.0990908640,-0.0003167350,0.0008571112
558384.3600236280,9.7953510592,0.0008666786,0.0002351868,0.0999919643,-0.0003167350,0.0008137208
558384.3700236280,9.7953523063,0.0011715936,0.0005403458,0.1010993405,-0.0003384363,0.0008354160
558384.3800236280,9.7964043248,0.0023968108,-0.0008405651,0.1015770322,-0.0003275856,0.0008571112
558384.3900236280,9.7962693292,0.0010227489,0.0006851734,0.1025432722,-0.0002950338,0.0008462636
558384.4000236280,9.7955091490,0.0016294524,0.0013018351,0.1037049315,-0.0003492869,0.0008788064
558384.4100236280,9.7958026000,0.0011738860,-0.0003785190,0.1042911895,-0.0003384363,0.0008679588
558384.4200236280,9.7968739999,0.0011780547,0.0000701291,0.1054962753,-0.0003384363,0.0008679588
558384.4300236281,9.7948850683,0.0023902108,-0.0000653290,0.1062996659,-0.0003926894,0.0008679588
558384.4400236279,9.7951998001,0.0014759527,0.0006942638,0.1068859239,-0.0003384363,0.0009113492
558384.4500236280,9.7954969066,0.0010201780,-0.0005285610,0.1081018664,-0.0003818388,0.0009005016
558384.4600236280,9.7951869914,0.0013241896,-0.0009834133,0.1087424075,-0.0003384363,0.0008679588
558384.4700236280,9.7945818405,0.0025413483,0.0002422978,0.1094372318,-0.0003926894,0.0009438919
558384.4800236280,9.7945938822,0.0010157320,0.0010041490,0.1104794682,-0.0003818388,0.0009221967
558384.4900236280,9.7954986627,0.0002576129,-0.0006814196,0.1111091527,-0.0003818388,0.0009005016
558384.5000236280,9.7953528152,0.0001041135,0.0000823282,0.1122490988,-0.0003601375,0.0009438919
558384.5100236280,9.7950333814,0.0028485557,-0.0003714080,0.1133890449,-0.0003709881,0.0009547395
558384.5200236280,9.7958009013,0.0025464200,0.0000796381,0.1138450233,-0.0003601375,0.0009330443
558384.5300236280,9.7947462738,-0.0005085647,0.0002396339,0.1148546898,-0.0004143906,0.0010089775
558384.5400236280,9.7955048413,0.0011722189,0.0005390770,0.1158534997,-0.0003926894,0.0009655871
558384.5500236280,9.7954952366,0.0026976963,0.0000822453,0.1165591806,-0.0003926894,0.0009330443
558384.5600236279,9.7953498980,0.0014767169,0.0003879755,0.1176014170,-0.0003709881,0.0010198251
558384.5700236280,9.7958105347,0.0013259269,0.0006891191,0.1183505245,-0.0003818388,0.0009764347
558384.5800236280,9.7950466129,0.0010178856,0.0003903037,0.1192081982,-0.0004035400,0.0009438919
558384.5900236280,9.7959588191,0.0014792874,0.0002303908,0.1202938611,-0.0004252412,0.0010306727
558384.6000236280,9.7951846978,0.0028492505,-0.0005251865,0.1209886854,-0.0004252412,0.0010089775
558384.6100236280,9.7948922073,0.0005598878,-0.0000661661,0.1218463591,-0.0004469425,0.0009981299
558384.6200236280,9.7952038785,-0.0005066889,0.0002358277,0.1229320220,-0.0004143906,0.0010306727
558384.6300236280,9.7954934231,0.0028502927,-0.0000701947,0.1235725632,-0.0004360919,0.0009981299
558384.6400236280,9.7962566926,0.0027008922,-0.0000766081,0.1245062333,-0.0004143906,0.0010198251
558384.6500236280,9.7958019764,0.0010214286,-0.0005310985,0.1254290468,-0.0004143906,0.0010849106
558384.6600236280,9.7953522777,0.0008666092,0.0003876965,0.1260587313,-0.0004469425,0.0010306727
558384.6700236280,9.7952033983,0.0008657756,0.0008464945,0.1272312473,-0.0004577931,0.0010089775
558384.6800236281,9.7959461825,0.0031574307,-0.0005313906,0.1279803547,-0.0004252412,0.0010740631
558384.6900236279,9.7956453918,0.0033084293,0.0000812556,0.1284146199,-0.0004686437,0.0010849106
558384.7000236280,9.7945936815,-0.0011191588,-0.0000643959,0.1297065587,-0.0004469425,0.0010523679
558384.7100236280,9.7951858016,0.0016292434,-0.0009832738,0.1306076590,-0.0004360919,0.0010523679
558384.7200236280,9.7950401549,0.0036106348,0.0008490189,0.1315630424,-0.0004469425,0.0010740631
558384.7300236280,9.7961138484,0.0020897426,0.0008394402,0.1325835655,-0.0004360919,0.0011283010
558384.7400236280,9.7961101069,0.0011749977,-0.0000760369,0.1330504006,-0.0004469425,0.0010957582
558384.7500236280,9.7954967919,-0.0001997596,-0.0011391581,0.1339732141,-0.0004686437,0.0010849106
558384.7600236280,9.7953433539,0.0031545129,0.0003887429,0.1351023035,-0.0004577931,0.0011283010
558384.7700236280,9.7958022632,0.0040712725,0.0009953942,0.1357102748,-0.0004903450,0.0011283010
558384.7800236280,9.7947438654,-0.0002034415,0.0000872637,0.1366439449,-0.0004794944,0.0011499962
558384.7900236280,9.7951941878,0.0001038354,-0.0006789518,0.1376210415,-0.0004903450,0.0011391486
558384.8000236280,9.7941229886,0.0022345575,-0.0000590551,0.1383810056,-0.0004794944,0.0011066058
558384.8100236279,9.7953445151,0.0025444747,0.0002359541,0.1393255323,-0.0005120462,0.0011825390
558384.8200236280,9.7956567812,0.0013253711,0.0005378781,0.1401289229,-0.0004903450,0.0011716914
558384.8300236280,9.7951948401,0.0005612773,-0.0003737230,0.1408454604,-0.0004903450,0.0011283010
558384.8400236280,9.7947293580,0.0010173294,-0.0011322564,0.1420614029,-0.0005011956,0.0011716914
558384.8500236280,9.7957985216,0.0031565277,0.0000799171,0.1427887971,-0.0004794944,0.0011933866
558384.8600236280,9.7953578613,0.0019337421,0.0016082629,0.1437441805,-0.0005120462,0.0011825390
558384.8700236280,9.7961148375,-0.0003502020,-0.0002292443,0.1447429904,-0.0005120462,0.0011933866
558384.8800236280,9.7956373998,0.0025464197,-0.0012916810,0.1453726749,-0.0004903450,0.0011716914
558384.8900236280,9.7959576866,0.0023943100,0.0005358289,0.1463606281,-0.0005011956,0.0012042342
558384.9000236280,9.7951962306,0.0023911142,0.0006946823,0.1472074452,-0.0005228969,0.0012150818
558384.9100236290,9.7941265868,0.0016243804,0.0000931757,0.1478914129,-0.0005662994,0.0012367770
558384.9200236290,9.7947334938,-0.0003553434,-0.0012853939,0.1489119360,-0.0005120462,0.0012150818
558384.9300236290,9.7953384225,0.0025448219,-0.0005265947,0.1498673194,-0.0005445981,0.0012150818
558384.9400236290,9.7942846767,0.0023871542,0.0011598240,0.1506055702,-0.0005337475,0.0012584721
558384.9500236290,9.7952033983,0.0008657756,0.0008464945,0.1517889428,-0.0005228969,0.0012476246
558384.9600236290,9.7948776999,0.0017806587,-0.0012856861,0.1524294839,-0.0005554487,0.0012150818
558384.9700236290,9.7948892040,0.0010175380,-0.0002184665,0.1532871576,-0.0005445981,0.0012584721
558384.9800236290,9.7953390461,0.0026972794,-0.0003740152,0.1542968242,-0.0005337475,0.0012801673
558384.9900236290,9.7951932560,0.0031537488,0.0006950311,0.1546225230,-0.0005554487,0.0012367770
558385.0000236291,9.7954981251,0.0010201086,-0.0003760513,0.1556973293,-0.0005445981,0.0013127101
558385.0100236289,9.7951851780,0.0014767860,-0.0011358533,0.1571304044,-0.0005662994,0.0013018625
558385.0200236290,9.7954928282,0.0030028196,-0.0000701249,0.1575320997,-0.0005445981,0.0012042342
558385.0300236290,9.7955054648,0.0013246763,0.0006916566,0.1586937590,-0.0005880006,0.0013127101
558385.0400236290,9.7953444577,0.0019345059,-0.0000693445,0.1595297195,-0.0005445981,0.0013344053
558385.0500236290,9.7957874690,0.0022421994,-0.0017506185,0.1600725510,-0.0005771500,0.0012693197
558385.0600236290,9.7954999099,0.0005625278,-0.0003762605,0.1612016404,-0.0005337475,0.0013561005
558385.0700236290,9.7953488515,0.0033066927,0.0011513614,0.1619833177,-0.0005880006,0.0013561005
558385.0800236290,9.7961126872,0.0026997808,0.0009922289,0.1627758517,-0.0005771500,0.0012910149
558385.0900236290,9.7947263261,0.0011699952,-0.0014372061,0.1639049411,-0.0005988512,0.0013561005
558385.1000236290,9.7950241996,0.0023915999,-0.0017442051,0.1645129124,-0.0005880006,0.0013777957
558385.1100236290,9.7945938249,0.0004057632,0.0006988504,0.1654682957,-0.0005771500,0.0013018625
558385.1200236290,9.7953536969,0.0030014305,0.0016087512,0.1665105322,-0.0005988512,0.0013669481
558385.1300236291,9.7951882673,0.0019340890,-0.0005256050,0.1670533636,-0.0006097018,0.0014103385
558385.1400236289,9.7968514719,0.0013318315,-0.0026749767,0.1681173133,-0.0005771500,0.0013452529
558385.1500236290,9.7945928931,0.0034556766,0.0020728334,0.1690401268,-0.0006314031,0.0013777957
558385.1600236290,9.7954988347,0.0020875192,0.0002344761,0.1697349511,-0.0005880006,0.0014211860
558385.1700236290,9.7956409980,0.0019362425,-0.0011394502,0.1707989007,-0.0006639550,0.0013561005
558385.1800236290,9.7957910385,0.0013270379,-0.0017510370,0.1715371515,-0.0005880006,0.0013561005
558385.1900236290,9.7956496422,0.0031556941,0.0005387151,0.1723839686,-0.0006422537,0.0014428812
558385.2000236290,9.7953506650,0.0031540963,0.0013038014,0.1735347713,-0.0005988512,0.0014103385
558385.2100236290,9.7965591820,0.0011773596,-0.0011474114,0.1741101727,-0.0006422537,0.0013886433
558385.2200236290,9.7944170345,0.0016264642,-0.0017394789,0.1750546994,-0.0006097018,0.0014320336
558385.2300236290,9.7956364107,0.0049863643,-0.0002229966,0.1757712370,-0.0006531043,0.0013994909
558385.2400236290,9.7954940467,0.0030027502,0.0000823849,0.1755649610,-0.0006097018,0.0014320336
558385.2500236291,9.7951901667,0.0026964458,0.0000847828,0.1751089826,-0.0006422537,0.0014537288
558385.2600236289,9.7951798525,0.0031545126,-0.0009825762,0.1745661511,-0.0006314031,0.0013994909
558385.2700236290,9.7947174024,0.0034578989,-0.0014361598,0.1742404522,-0.0006314031,0.0013886433
558385.2800236290,9.7950321916,0.0031536096,-0.0003712685,0.1740993161,-0.0006314031,0.0014537288
558385.2900236290,9.7948814701,0.0030003880,-0.0002175597,0.1740884594,-0.0006314031,0.0014320336
558385.3000236290,9.7957934756,0.0013268990,-0.0014460175,0.1741753125,-0.0006205525,0.0013886433
558385.3100236290,9.7956368336,0.0030039310,-0.0011389620,0.1742295956,-0.0006097018,0.0014103385
558385.3200236290,9.7948845880,0.0037626753,0.0005453379,0.1742513089,-0.0006205525,0.0013994909
558385.3300236290,9.7953421354,0.0031545824,0.0002362331,0.1743055920,-0.0006531043,0.0014428812
558385.3400236290,9.7947281395,0.0010173988,-0.0012847661,0.1743055920,-0.0006205525,0.0014320336
558385.3500236290,9.7956355577,0.0023940316,-0.0015967702,0.1743924451,-0.0006314031,0.0013777957
558385.3600236290,9.7951860310,0.0040691186,0.0002379204,0.1743164486,-0.0006097018,0.0013886433
558385.3700236290,9.7950400689,0.0026956816,0.0003910711,0.1743598752,-0.0006314031,0.0014645764
558385.3800236291,9.7962487580,0.0025488513,-0.0011442462,0.1743707318,-0.0006314031,0.0014211860
558385.3900236289,9.7953353906,0.0026974877,-0.0008315445,0.1743273053,-0.0006205525,0.0013886433
558385.4000236290,9.7953286171,0.0019354086,-0.0020519713,0.1743164486,-0.0006097018,0.0014537288
558385.4100236290,9.7954922620,0.0034603309,0.0000825941,0.1743273053,-0.0006314031,0.0014211860
558385.4200236290,9.7948979056,0.0028469583,0.0017649974,0.1743490185,-0.0006314031,0.0013886433
558385.4300236290,9.7956404031,0.0020887695,-0.0011393805,0.1743490185,-0.0006314031,0.0014645764
558385.4400236290,9.7953158945,0.0026985987,-0.0032717006,0.1743273053,-0.0006097018,0.0013886433
558385.4500236290,9.7956422452,0.0022411575,-0.0008342912,0.1743381619,-0.0006314031,0.0013994909
558385.4600236290,9.7950516590,0.0028475142,0.0019162384,0.1743381619,-0.0006422537,0.0014428812
558385.4700236290,9.7951798525,0.0031545126,-0.0009825762,0.1743490185,-0.0006205525,0.0014211860
558385.4800236290,9.7954769303,0.0023937535,-0.0023580503,0.1743273053,-0.0006205525,0.0013994909
558385.4900236290,9.7956398082,0.0022412964,-0.0011393107,0.1744250149,-0.0006097018,0.0014320336
558385.5000236291,9.7955056082,0.0028495983,0.0014549029,0.1744575848,-0.0006422537,0.0014211860
558385.5100236289,9.7953414832,0.0026971405,-0.0000689957,0.1744358716,-0.0006422537,0.0014428812
558385.5200236290,9.7951705846,0.0017826036,-0.0028133211,0.1744792981,-0.0006205525,0.0014537288
558385.5300236290,9.7948728258,0.0017809364,-0.0018957251,0.1744792981,-0.0006314031,0.0014211860
558385.5400236290,9.7948881575,0.0028475138,0.0005449193,0.1744467282,-0.0006097018,0.0013886433
558385.5500236290,9.7954898823,0.0040704386,0.0000828731,0.1744575848,-0.0006531043,0.0014211860
558385.5600236290,9.7953323587,0.0028501535,-0.0011364942,0.1744792981,-0.0006314031,0.0014320336
558385.5700236290,9.7954804998,0.0014785920,-0.0023584688,0.1744575848,-0.0006097018,0.0013994909
558385.5800236290,9.7951840455,0.0023918086,-0.0008304152,0.1744141583,-0.0005880006,0.0013994909
558385.5900236290,9.7956539214,0.0033079432,0.0011488239,0.1744575848,-0.0006314031,0.0014320336
558385.6000236290,9.7953306026,0.0036127186,-0.0009836357,0.1744141583,-0.0006422537,0.0014320336
558385.6100236290,9.7948650633,0.0034588020,-0.0020474675,0.1744467282,-0.0006205525,0.0014211860
558385.6200236290,9.7957923718,0.0025469061,-0.0009879302,0.1744575848,-0.0006205525,0.0013994909
558385.6300236291,9.7951968542,0.0025435717,0.0008472618,0.1744901547,-0.0006314031,0.0014320336
558385.6400236289,9.7945715262,0.0029994151,-0.0008250613,0.1745335812,-0.0006314031,0.0014211860
558385.6500236290,9.7948705035,0.0030010129,-0.0015901475,0.1744575848,-0.0006097018,0.0014320336
558385.6600236290,9.7951822321,0.0025444049,-0.0009828552,0.1744575848,-0.0006097018,0.0014428812
558385.6700236290,9.7953427017,0.0026970711,0.0000835141,0.1744901547,-0.0006097018,0.0014211860
558385.6800236290,9.7954909575,0.0025454472,-0.0005278635,0.1744792981,-0.0006205525,0.0014211860
558385.6900236290,9.7954885204,0.0025455861,-0.0008328830,0.1744901547,-0.0006422537,0.0014320336
558385.7000236290,9.7960969327,0.0036156367,-0.0005324501,0.1745227246,-0.0005880006,0.0014320336
558385.7100236290,9.7956423025,0.0028511263,-0.0005289927,0.1745118680,-0.0006314031,0.0014211860
558385.7200236290,9.7953444291,0.0016295215,-0.0002219937,0.1743924451,-0.0006314031,0.0014320336
558385.7300236290,9.7950315106,0.0023911833,-0.0008291465,0.1744575848,-0.0006314031,0.0014211860
558385.7400236290,9.7950249092,0.0034590106,-0.0011336777,0.1744575848,-0.0006097018,0.0013886433
558385.7500236291,9.7950273175,0.0031538873,-0.0009813075,0.1744575848,-0.0006205525,0.0014428812
558385.7600236289,9.7957954610,0.0030042091,-0.0003776819,0.1745118680,-0.0006314031,0.0014428812
558385.7700236290,9.7950363560,0.0020859212,-0.0003717567,0.1745661511,-0.0006531043,0.0013994909
558385.7800236290,9.7956368049,0.0026989466,-0.0012916112,0.1745770077,-0.0006314031,0.0014428812
558385.7900236290,9.7957857990,0.0039197177,-0.0011398121,0.1745661511,-0.0006097018,0.0014320336
558385.8000236290,9.7956387617,0.0040712722,-0.0003759249,0.1745010113,-0.0006097018,0.0013994909
558385.8100236290,9.7948826312,0.0023903497,-0.0003703485,0.1744792981,-0.0006314031,0.0014537288
558385.8200236290,9.7953353333,0.0020875189,-0.0011368430,0.1744901547,-0.0006205525,0.0014211860
558385.8300236290,9.7954830515,0.0026983907,-0.0014428522,0.1744901547,-0.0006205525,0.0013777957
558385.8400236290,9.7951817519,0.0039168694,-0.0003721884,0.1745335812,-0.0006205525,0.0014428812
558385.8500236290,9.7961041290,0.0023952825,-0.0002279886,0.1744792981,-0.0006422537,0.0014645764
558385.8600236290,9.7950357037,0.0016284793,-0.0006769855,0.1744575848,-0.0006314031,0.0013994909
558385.8700236290,9.7951827984,0.0020868936,-0.0011355743,0.1744250149,-0.0006097018,0.0013886433
558385.8800236291,9.7959408856,0.0051401417,-0.0002254643,0.1745010113,-0.0006205525,0.0014320336
558385.8900236289,9.7960915211,0.0043784102,-0.0008371208,0.1745118680,-0.0006314031,0.0014211860
558385.9000236290,9.7948854911,0.0004077776,-0.0009812944,0.1745661511,-0.0006205525,0.0014428812
558385.9100236290,9.7950344565,0.0013235643,-0.0009821446,0.1745770077,-0.0006314031,0.0013994909
558385.9200236290,9.7951744982,0.0045272549,-0.0009819484,0.1745661511,-0.0006097018,0.0013777957
558385.9300236290,9.7951811570,0.0040693964,-0.0003721187,0.1745335812,-0.0006097018,0.0014537288
558385.9400236290,9.7956471479,0.0025458641,-0.0000716029,0.1744792981,-0.0006205525,0.0014537288
558385.9500236290,9.7950368649,0.0010184411,-0.0008297743,0.1745010113,-0.0006205525,0.0013886433
558385.9600236290,9.7950211963,0.0028492501,-0.0018965055,0.1745118680,-0.0006205525,0.0014211860
558385.9700236290,9.7951794009,0.0048319615,-0.0002192601,0.1745010113,-0.0006205525,0.0014428812
558385.9800236290,9.7959528700,0.0030045566,0.0002310884,0.1745010113,-0.0006097018,0.0014320336
558385.9900236300,9.7948800222,0.0005605822,-0.0015912636,0.1744792981,-0.0006422537,0.0014320336
558386.0000236300,9.7950205154,0.0020868239,-0.0023543836,0.1744792981,-0.0006314031,0.0014211860
558386.0100236300,9.7956327265,0.0046815882,-0.0008331751,0.1748484235,-0.0006205525,0.0013886433
558386.0200236300,9.7950372090,0.0046782538,0.0010020169,0.1745010113,-0.0006205525,0.0014428812
558386.0300236300,9.7956403171,0.0011738163,-0.0015973283,0.1745118680,-0.0006314031,0.0014645764
558386.0400236300,9.7959344777,0.0017856606,-0.0026671551,0.1744901547,-0.0006205525,0.0013669481
558386.0500236300,9.7950255615,0.0039164525,-0.0008284489,0.1744575848,-0.0006205525,0.0013994909
558386.0600236300,9.7945813316,0.0036088284,0.0007003153,0.1744901547,-0.0006422537,0.0014754240
558386.0700236300,9.7960992550,0.0023955603,-0.0008380277,0.1745010113,-0.0005771500,0.0013994909
558386.0800236301,9.7959423836,0.0016327170,-0.0017521663,0.1745118680,-0.0006205525,0.0013669481
558386.0900236299,9.7956308271,0.0039192313,-0.0014435629,0.1745227246,-0.0006205525,0.0014645764
558386.1000236300,9.7959439175,0.0049874759,0.0000794855,0.1745444379,-0.0006205525,0.0014320336
558386.1100236300,9.7957995968,0.0016315362,-0.0005308195,0.1745770077,-0.0006314031,0.0014211860
558386.1200236300,9.7959424696,0.0025476702,-0.0012942185,0.1745010113,-0.0006205525,0.0014428812
558386.1300236300,9.7953142244,0.0043761170,-0.0026608942,0.1744901547,-0.0006314031,0.0013994909
558386.1400236300,9.7945782710,0.0034565098,0.0002427163,0.1745227246,-0.0006205525,0.0014428812
558386.1500236300,9.7948880428,0.0016275763,-0.0000656778,0.1745335812,-0.0006097018,0.0014320336
558386.1600236300,9.7959382766,0.0033103742,-0.0014463794,0.1745335812,-0.0006097018,0.0013669481
558386.1700236300,9.7953208832,0.0039182585,-0.0020510645,0.1744792981,-0.0006205525,0.0014211860
558386.1800236300,9.7950297259,0.0028487641,-0.0008289372,0.1745118680,-0.0006314031,0.0014754240
558386.1900236300,9.7950357611,0.0022384481,-0.0003716870,0.1745335812,-0.0006314031,0.0014211860
558386.2000236301,9.7959449067,0.0025475313,-0.0009891989,0.1745661511,-0.0006314031,0.0013777957
558386.2100236299,9.7948657442,0.0042212282,-0.0015895895,0.1745661511,-0.0006205525,0.0014320336
558386.2200236300,9.7953324160,0.0034601223,-0.0008311957,0.1745987210,-0.0006097018,0.0014211860
558386.2300236300,9.7951858016,0.0016292434,-0.0009832738,0.1745661511,-0.0006314031,0.0014537288
558386.2400236300,9.7959479099,0.0020898811,-0.0008368984,0.1744901547,-0.0006205525,0.0014211860
558386.2500236300,9.7959395237,0.0036152892,-0.0011412204,0.1745661511,-0.0006205525,0.0013886433
558386.2600236300,9.7957833620,0.0039198566,-0.0014448317,0.1745118680,-0.0006205525,0.0014211860
558386.2700236300,9.7957948088,0.0025467672,-0.0006829107,0.1744901547,-0.0006205525,0.0014428812
558386.2800236300,9.7953377703,0.0020873800,-0.0008318235,0.1745335812,-0.0005880006,0.0013994909
558386.2900236300,9.7960962804,0.0031581948,-0.0008376789,0.1745661511,-0.0006205525,0.0013994909
558386.3000236300,9.7957809536,0.0042249799,-0.0015972019,0.1745335812,-0.0006314031,0.0014428812
558386.3100236300,9.7947185635,0.0028478607,-0.0015889486,0.1745118680,-0.0006314031,0.0014320336
558386.3200236300,9.7956440013,0.0014785924,-0.0009871498,0.1745227246,-0.0006205525,0.0013994909
558386.3300236301,9.7956350202,0.0031565273,-0.0012914020,0.1745227246,-0.0006314031,0.0013994909
558386.3400236299,9.7956332641,0.0039190925,-0.0011385434,0.1745335812,-0.0006097018,0.0014211860
558386.3500236300,9.7953336345,0.0034600528,-0.0006786859,0.1745444379,-0.0006205525,0.0014428812
558386.3600236300,9.7948849822,0.0014752577,-0.0005232768,0.1745661511,-0.0006314031,0.0014428812
558386.3700236300,9.7953342295,0.0033075259,-0.0006787557,0.1745878644,-0.0006205525,0.0013886433
558386.3800236300,9.7954710958,0.0051389603,-0.0017467557,0.1745227246,-0.0006097018,0.0014211860
558386.3900236300,9.7956332067,0.0033091237,-0.0014438420,0.1745335812,-0.0006422537,0.0014645764
558386.4000236300,9.7951894285,0.0013240507,-0.0006783938,0.1745444379,-0.0006097018,0.0013994909
558386.4100236300,9.7954867357,0.0030031668,-0.0008326737,0.1745227246,-0.0006314031,0.0013777957
558386.4200236300,9.7960854285,0.0043787574,-0.0015996696,0.1745444379,-0.0005880006,0.0014537288
558386.4300236300,9.7957876411,0.0040721058,-0.0008347229,0.1745770077,-0.0005880006,0.0014211860
558386.4400236300,9.7956428401,0.0020886306,-0.0008343610,0.1745770077,-0.0006314031,0.0013994909
558386.4500236301,9.7951846405,0.0022392817,-0.0008304850,0.1745010113,-0.0006205525,0.0014320336
558386.4600236299,9.7957839856,0.0040723141,-0.0012922522,0.1744901547,-0.0006205525,0.0013994909
558386.4700236300,9.7953311689,0.0031552073,-0.0011363547,0.1745444379,-0.0006097018,0.0014211860
558386.4800236300,9.7957983783,0.0016316057,-0.0006833292,0.1745661511,-0.0006314031,0.0014428812
558386.4900236300,9.7951798811,0.0034594970,-0.0008299270,0.1746204343,-0.0006422537,0.0013777957
558386.5000236300,9.7950164083,0.0037644811,-0.0020485968,0.1746312909,-0.0006097018,0.0013994909
558386.5100236300,9.7951720325,0.0042224093,-0.0014396172,0.1745987210,-0.0006097018,0.0014537288
558386.5200236300,9.7953354193,0.0030024721,-0.0006788952,0.1745661511,-0.0006097018,0.0013886433
558386.5300236300,9.7957965648,0.0017842020,-0.0008357692,0.1745118680,-0.0006205525,0.0013777957
558386.5400236300,9.7944111427,0.0037617022,-0.0014334828,0.1745770077,-0.0006314031,0.0014211860
558386.5500236300,9.7956266053,0.0043769510,-0.0017483732,0.1745770077,-0.0005771500,0.0014211860
558386.5600236300,9.7959503469,0.0020897423,-0.0005318789,0.1745770077,-0.0006097018,0.0014211860
558386.5700236300,9.7956416216,0.0020887000,-0.0009868707,0.1745987210,-0.0006314031,0.0014211860
558386.5800236301,9.7957834193,0.0045298254,-0.0011395331,0.1745878644,-0.0006205525,0.0013886433
558386.5900236299,9.7950182791,0.0042218535,-0.0015908582,0.1745770077,-0.0006314031,0.0014428812
558386.6000236300,9.7957966509,0.0026991552,-0.0003778214,0.1745118680,-0.0005880006,0.0014428812
558386.6100236300,9.7948813841,0.0020854348,-0.0006755075,0.1745335812,-0.0006422537,0.0013777957
558386.6200236300,9.7954812667,0.0031559715,-0.0014426430,0.1745444379,-0.0006205525,0.0013994909
558386.6300236300,9.7948663391,0.0040687013,-0.0015896592,0.1745227246,-0.0006314031,0.0014537288
558386.6400236300,9.7957863366,0.0031572220,-0.0014451804,0.1745770077,-0.0005880006,0.0014211860
558386.6500236300,9.7956379661,0.0020889083,-0.0014444000,0.1745878644,-0.0005880006,0.0013994909
558386.6600236300,9.7960950332,0.0028532799,-0.0011428379,0.1745987210,-0.0006205525,0.0014320336
558386.6700236300,9.7954826286,0.0046808240,-0.0005268869,0.1745444379,-0.0006314031,0.0013994909
558386.6800236300,9.7950230384,0.0030016382,-0.0015914163,0.1745770077,-0.0006097018,0.0014320336
558386.6900236300,9.7951791428,0.0020871019,-0.0015931036,0.1745987210,-0.0006205525,0.0014537288
558386.7000236301,9.7956410840,0.0028511957,-0.0006815024,0.1745770077,-0.0006205525,0.0013777957
558386.7100236299,9.7947234662,0.0031525673,-0.0008262603,0.1745335812,-0.0006422537,0.0013886433
558386.7200236300,9.7951701617,0.0037650369,-0.0018973557,0.1745227246,-0.0006097018,0.0014645764
558386.7300236300,9.7957796491,0.0033100961,-0.0022076595,0.1745335812,-0.0005880006,0.0013886433
558386.7400236300,9.7960998786,0.0025480177,-0.0006854482,0.1745335812,-0.0005771500,0.0013994909
558386.7500236300,9.7954904486,0.0036129273,-0.0000698459,0.1746095776,-0.0006205525,0.0014428812
558386.7600236300,9.7953256999,0.0033080120,-0.0017463240,0.1746204343,-0.0006205525,0.0014211860
558386.7700236300,9.7956307124,0.0026992938,-0.0020541600,0.1746638608,-0.0006097018,0.0013994909
558386.7800236300,9.7960980078,0.0020906453,-0.0011431867,0.1746312909,-0.0006097018,0.0014428812
558386.7900236300,9.7961005595,0.0033104440,-0.0002275701,0.1747398572,-0.0006097018,0.0014103385
558386.8000236300,9.7954855459,0.0033082206,-0.0008325342,0.1747615704,-0.0006205525,0.0014103385
558386.8100236300,9.7960895069,0.0023961158,-0.0020581057,0.1746095776,-0.0006205525,0.0014320336
558386.8200236300,9.7956284187,0.0042243546,-0.0015959332,0.1745987210,-0.0005771500,0.0013886433
558386.8300236301,9.7957912106,0.0031569443,-0.0008351414,0.1745227246,-0.0006097018,0.0014211860
558386.8400236299,9.7956362387,0.0031564579,-0.0011388922,0.1745010113,-0.0006097018,0.0014428812
558386.8500236300,9.7948710984,0.0028484860,-0.0015902173,0.1744901547,-0.0006314031,0.0013994909
558386.8600236300,9.7953311402,0.0028502229,-0.0012890040,0.1745335812,-0.0006097018,0.0013994909
558386.8700236300,9.7951786913,0.0037645508,-0.0008297874,0.1745118680,-0.0006097018,0.0014320336
558386.8800236300,9.7960920300,0.0033109301,-0.0012951384,0.1745770077,-0.0006314031,0.0013886433
558386.8900236300,9.7956343679,0.0026990854,-0.0015966307,0.1745227246,-0.0006205525,0.0014211860
558386.9000236300,9.7950255041,0.0033064837,-0.0011337475,0.1745987210,-0.0006097018,0.0014537288
558386.9100236300,9.7954765361,0.0046811712,-0.0012894357,0.1746204343,-0.0006422537,0.0014211860
558386.9200236300,9.7959418461,0.0023952127,-0.0014467980,0.1745878644,-0.0006097018,0.0014211860
558386.9300236300,9.7954781775,0.0026986685,-0.0020528913,0.1746095776,-0.0006314031,0.0014211860
558386.9400236300,9.7953305453,0.0030027498,-0.0012889342,0.1745770077,-0.0006097018,0.0013886433
558386.9500236301,9.7951798525,0.0031545126,-0.0009825762,0.1745770077,-0.0006205525,0.0014320336
558386.9600236299,9.7950183078,0.0045268379,-0.0014382090,0.1745444379,-0.0005771500,0.0014320336
558386.9700236300,9.7953359569,0.0022399764,-0.0009842635,0.1745878644,-0.0005880006,0.0014211860
558386.9800236300,9.7954884918,0.0022406017,-0.0009855322,0.1745227246,-0.0006205525,0.0014320336
558386.9900236300,9.7953299503,0.0031552768,-0.0012888645,0.1745010113,-0.0006205525,0.0014211860
558387.0000236300,9.7950225009,0.0037641339,-0.0012860480,0.1745227246,-0.0006314031,0.0014211860
558387.0100236300,9.7951791715,0.0023920863,-0.0014404543,0.1747941403,-0.0005988512,0.0014320336
558387.0200236300,9.7962439413,0.0031590979,-0.0014489867,0.1745661511,-0.0005880006,0.0013886433
558387.0300236300,9.7951768205,0.0033071784,-0.0012875260,0.1745444379,-0.0006205525,0.0013886433
558387.0400236300,9.7953323874,0.0031551379,-0.0009838450,0.1745227246,-0.0005880006,0.0014537288
558387.0500236300,9.7956302035,0.0037667739,-0.0015961424,0.1745878644,-0.0006422537,0.0014211860
558387.0600236310,9.7957826237,0.0025474616,-0.0022080083,0.1745661511,-0.0005880006,0.0013994909
558387.0700236310,9.7951786053,0.0028495977,-0.0012877353,0.1745444379,-0.0006314031,0.0014211860
558387.0800236310,9.7951792862,0.0036120239,-0.0008298572,0.1745987210,-0.0006314031,0.0013994909
558387.0900236310,9.7954740131,0.0037663569,-0.0020524030,0.1745987210,-0.0005880006,0.0013994909
558387.1000236310,9.7951736739,0.0022399066,-0.0022030728,0.1745987210,-0.0006097018,0.0014428812
558387.1100236310,9.7954813528,0.0040709247,-0.0009846952,0.1745335812,-0.0005880006,0.0013886433
558387.1200236310,9.7945745295,0.0025417650,-0.0006727608,0.1745335812,-0.0006205525,0.0013994909
558387.1300236310,9.7959322987,0.0045306590,-0.0015983311,0.1745444379,-0.0006097018,0.0014320336
558387.1400236310,9.7954734755,0.0045288526,-0.0017470347,0.1745444379,-0.0006205525,0.0013994909
558387.1500236311,9.7953292694,0.0023928505,-0.0017467425,0.1745444379,-0.0006097018,0.0014320336
558387.1600236309,9.7948741590,0.0030008046,-0.0011326183,0.1745444379,-0.0006097018,0.0014211860
558387.1700236310,9.7948711558,0.0034584548,-0.0012849188,0.1745661511,-0.0006205525,0.0013994909
558387.1800236310,9.7950207161,0.0042217146,-0.0012858387,0.1745118680,-0.0005771500,0.0014320336
558387.1900236310,9.7956326118,0.0034616506,-0.0014437722,0.1745335812,-0.0005880006,0.0014320336
558387.2000236310,9.7956434063,0.0016311193,-0.0009870800,0.1745010113,-0.0006097018,0.0013994909
558387.2100236310,9.7953311689,0.0031552073,-0.0011363547,0.1745227246,-0.0006205525,0.0013777957
558387.2200236310,9.7950279698,0.0036113292,-0.0006760787,0.1745661511,-0.0006097018,0.0014211860
558387.2300236310,9.7956307697,0.0033092626,-0.0017488615,0.1745661511,-0.0006097018,0.0014428812
558387.2400236310,9.7950211963,0.0028492501,-0.0018965055,0.1745770077,-0.0006097018,0.0013994909
558387.2500236310,9.7953287605,0.0034603306,-0.0012887250,0.1745770077,-0.0006097018,0.0013994909
558387.2600236310,9.7953354193,0.0030024721,-0.0006788952,0.1745227246,-0.0006205525,0.0014537288
558387.2700236310,9.7951810136,0.0025444744,-0.0011353650,0.1745118680,-0.0006097018,0.0013886433
558387.2800236311,9.7957808676,0.0033100267,-0.0020551497,0.1745444379,-0.0005880006,0.0013777957
558387.2900236310,9.7957833333,0.0036148722,-0.0015974809,0.1745444379,-0.0006097018,0.0014428812
558387.3000236310,9.7947222477,0.0031526368,-0.0009787700,0.1745444379,-0.0005880006,0.0014320336
558387.3100236310,9.7951797951,0.0025445438,-0.0012878748,0.1746095776,-0.0006097018,0.0013994909
558387.3200236310,9.7960847763,0.0039213155,-0.0019048984,0.1745878644,-0.0006097018,0.0014211860
558387.3300236310,9.7944045413,0.0048295295,-0.0017380140,0.1745444379,-0.0006422537,0.0013994909
558387.3400236310,9.7956331494,0.0026991549,-0.0017491405,0.1745770077,-0.0005880006,0.0014428812
558387.3500236310,9.7951803900,0.0023920169,-0.0012879445,0.1745878644,-0.0006314031,0.0014211860
558387.3600236310,9.7954727945,0.0037664263,-0.0022049127,0.1745770077,-0.0006205525,0.0013886433
558387.3700236310,9.7956296086,0.0039193008,-0.0015960727,0.1745770077,-0.0006097018,0.0014428812
558387.3800236310,9.7956301748,0.0034617895,-0.0017487917,0.1745227246,-0.0006205525,0.0014320336
558387.3900236310,9.7951797951,0.0025445438,-0.0012878748,0.1745118680,-0.0006097018,0.0013886433
558387.4000236311,9.7953226967,0.0037656622,-0.0018986245,0.1745118680,-0.0006205525,0.0013994909
558387.4100236309,9.7950206588,0.0036117458,-0.0015911373,0.1745770077,-0.0006097018,0.0014320336
558387.4200236310,9.7953305739,0.0033077342,-0.0011362850,0.1745770077,-0.0005880006,0.0014211860
558387.4300236310,9.7948717794,0.0036109122,-0.0011323392,0.1745661511,-0.0006205525,0.0014211860
558387.4400236310,9.7950151611,0.0034595661,-0.0023537558,0.1745770077,-0.0006205525,0.0014320336
558387.4500236310,9.7950146236,0.0042220618,-0.0020483875,0.1745335812,-0.0005771500,0.0013994909
558387.4600236310,9.7957863366,0.0031572220,-0.0014451804,0.1745661511,-0.0005771500,0.0014211860
558387.4700236310,9.7959462112,0.0034624151,-0.0003787414,0.1745661511,-0.0005880006,0.0014320336
558387.4800236310,9.7951622271,0.0036129961,-0.0029649938,0.1746095776,-0.0006205525,0.0013994909
558387.4900236310,9.7954678918,0.0034617197,-0.0029676010,0.1746204343,-0.0005880006,0.0014211860
558387.5000236310,9.7954916671,0.0036128579,0.0000826639,0.1745987210,-0.0006097018,0.0014428812
558387.5100236310,9.7956386757,0.0031563190,-0.0008338727,0.1745878644,-0.0006097018,0.0014211860
558387.5200236310,9.7957790829,0.0037676075,-0.0020549405,0.1745335812,-0.0006314031,0.0013994909
558387.5300236311,9.7951694521,0.0026976262,-0.0025078831,0.1745118680,-0.0006097018,0.0014211860
558387.5400236310,9.7957875264,0.0028521682,-0.0014453200,0.1744575848,-0.0005880006,0.0014211860
558387.5500236310,9.7953360429,0.0031549296,-0.0005263157,0.1745444379,-0.0006314031,0.0013994909
558387.5600236310,9.7953275133,0.0031554156,-0.0015938840,0.1745770077,-0.0006097018,0.0014211860
558387.5700236310,9.7951659113,0.0039177721,-0.0023548153,0.1746095776,-0.0006205525,0.0014428812
558387.5800236310,9.7953281082,0.0030028887,-0.0015939537,0.1746312909,-0.0006097018,0.0013994909
558387.5900236310,9.7959431506,0.0033100965,-0.0008363404,0.1746312909,-0.0005880006,0.0013994909
558387.6000236310,9.7956332641,0.0039190925,-0.0011385434,0.1746095776,-0.0006205525,0.0014211860
558387.6100236310,9.7954691104,0.0034616503,-0.0028150913,0.1745878644,-0.0006314031,0.0013994909
558387.6200236310,9.7950157561,0.0033070392,-0.0023538256,0.1745335812,-0.0006097018,0.0014211860
558387.6300236310,9.7954837038,0.0031558326,-0.0011376235,0.1745987210,-0.0006097018,0.0014320336
558387.6400236310,9.7953360142,0.0028499452,-0.0006789650,0.1745661511,-0.0005880006,0.0013994909
558387.6500236311,9.7953245387,0.0039180502,-0.0015935352,0.1745661511,-0.0006205525,0.0014211860
558387.6600236309,9.7953220444,0.0033082203,-0.0022038533,0.1745661511,-0.0006097018,0.0013994909
558387.6700236310,9.7954794246,0.0030035834,-0.0017477322,0.1745227246,-0.0005880006,0.0013994909
558387.6800236310,9.7953293554,0.0033078037,-0.0012887947,0.1745661511,-0.0006097018,0.0014211860
558387.6900236310,9.7956320743,0.0042241463,-0.0011384039,0.1745227246,-0.0006097018,0.0013886433
558387.7000236310,9.7959267151,0.0034635261,-0.0028188975,0.1745444379,-0.0006205525,0.0014320336
558387.7100236310,9.7948704748,0.0026960285,-0.0017427968,0.1745444379,-0.0005880006,0.0014211860
558387.7200236310,9.7954861121,0.0028507093,-0.0009852532,0.1745878644,-0.0006097018,0.0013886433
558387.7300236310,9.7944105765,0.0042192135,-0.0012807638,0.1745878644,-0.0006097018,0.0013886433
558387.7400236310,9.7947089588,0.0043733382,-0.0020457803,0.1746312909,-0.0005880006,0.0014211860
558387.7500236310,9.7948686614,0.0028486249,-0.0018952368,0.1746638608,-0.0006205525,0.0014211860
558387.7600236310,9.7951767058,0.0020872408,-0.0018981231,0.1745987210,-0.0005880006,0.0014320336
558387.7700236310,9.7953275994,0.0040703688,-0.0011359362,0.1746204343,-0.0005880006,0.0013886433
558387.7800236311,9.7956284474,0.0045293390,-0.0014432839,0.1745987210,-0.0006205525,0.0014211860
558387.7900236310,9.7951700470,0.0025450993,-0.0025079528,0.1745987210,-0.0005880006,0.0014320336
558387.8000236310,9.7948644397,0.0033063445,-0.0022000471,0.1745661511,-0.0006097018,0.0013777957
558387.8100236310,9.7953312549,0.0040701605,-0.0006784069,0.1745335812,-0.0006097018,0.0013886433
558387.8200236310,9.7956283901,0.0039193702,-0.0017485824,0.1745878644,-0.0006097018,0.0014428812
558387.8300236310,9.7960828195,0.0025489899,-0.0028205848,0.1745335812,-0.0006097018,0.0014211860
558387.8400236310,9.7944110854,0.0031517334,-0.0017387813,0.1745444379,-0.0005771500,0.0013777957
558387.8500236310,9.7956368336,0.0030039310,-0.0011389620,0.1745227246,-0.0006314031,0.0014320336
558387.8600236310,9.7957816633,0.0052923906,-0.0009866746,0.1745661511,-0.0005880006,0.0013886433
558387.8700236310,9.7953232342,0.0030031665,-0.0022039928,0.1745227246,-0.0006097018,0.0013994909
558387.8800236310,9.7948673282,0.0016287567,-0.0026583437,0.1746204343,-0.0006097018,0.0014537288
558387.8900236310,9.7959281056,0.0052933630,-0.0017504921,0.1746204343,-0.0005880006,0.0013777957
558387.9000236311,9.7959402333,0.0046826999,-0.0005306931,0.1745770077,-0.0005771500,0.0014320336
558387.9100236309,9.7948745819,0.0010183713,-0.0020485836,0.1745987210,-0.0006205525,0.0014862716
558387.9200236310,9.7959266864,0.0031585417,-0.0029715468,0.1745661511,-0.0005771500,0.0013344053
558387.9300236310,9.7953246248,0.0048330034,-0.0011355874,0.1745661511,-0.0006097018,0.0013561005
558387.9400236310,9.7951823181,0.0034593581,-0.0005249074,0.1745118680,-0.0006097018,0.0015188144
558387.9500236310,9.7963897601,0.0030076129,-0.0023653837,0.1745227246,-0.0005880006,0.0013886433
558387.9600236310,9.7956275658,0.0016320220,-0.0029697069,0.1745335812,-0.0005880006,0.0013344053
558387.9700236310,9.7951762543,0.0037646897,-0.0011348070,0.1745010113,-0.0005662994,0.0014754240
558387.9800236310,9.7957816919,0.0055973750,-0.0008340253,0.1744901547,-0.0006205525,0.0014211860
558387.9900236310,9.7957880926,0.0023946569,-0.0015980390,0.1745661511,-0.0005880006,0.0013669481
558388.0000236310,9.7954793100,0.0017836459,-0.0023583293,0.1745987210,-0.0006097018,0.0014428812
558388.0100236310,9.7950086171,0.0051373622,-0.0023529885,0.1748701367,-0.0006097018,0.0014103385
558388.0200236310,9.7957767606,0.0049876839,-0.0017493629,0.1746204343,-0.0006097018,0.0013777957
558388.0300236311,9.7947245987,0.0022375447,-0.0011316983,0.1746530042,-0.0006205525,0.0014754240
558388.0400236310,9.7965453556,0.0031605567,-0.0019090534,0.1746204343,-0.0005771500,0.0014211860
558388.0500236310,9.7953136295,0.0045286440,-0.0026608245,0.1745770077,-0.0006205525,0.0013452529
558388.0600236310,9.7950139426,0.0034596356,-0.0025062656,0.1745335812,-0.0006097018,0.0014754240
558388.0700236310,9.7954758265,0.0036137605,-0.0018999630,0.1745661511,-0.0006097018,0.0014428812
558388.0800236310,9.7956362100,0.0028514735,-0.0012915415,0.1745227246,-0.0005880006,0.0013452529
558388.0900236310,9.7962444502,0.0020916178,-0.0019070042,0.1745118680,-0.0006097018,0.0014428812
558388.1000236310,9.7956175955,0.0057499015,-0.0022052746,0.1745227246,-0.0006097018,0.0014428812
558388.1100236310,9.7956259244,0.0036145247,-0.0022062512,0.1744901547,-0.0006205525,0.0013561005
558388.1200236310,9.7950229237,0.0017817006,-0.0022020134,0.1745118680,-0.0005880006,0.0014428812
558388.1300236320,9.7959346497,0.0036155669,-0.0017512594,0.1745118680,-0.0006097018,0.0013886433
558388.1400236320,9.7956278238,0.0043768815,-0.0015958634,0.1745770077,-0.0006097018,0.0013669481
558388.1500236320,9.7953238578,0.0031556240,-0.0020514133,0.1745987210,-0.0006097018,0.0014537288
558388.1600236320,9.7953237718,0.0022406708,-0.0025093611,0.1746530042,-0.0005880006,0.0014428812
558388.1700236320,9.7963868715,0.0046852006,-0.0019070871,0.1746312909,-0.0006205525,0.0013561005
558388.1800236320,9.7948747540,0.0028482777,-0.0011326880,0.1746204343,-0.0005771500,0.0014537288
558388.1900236320,9.7953232342,0.0030031665,-0.0022039928,0.1745987210,-0.0006205525,0.0014428812
558388.2000236320,9.7956321029,0.0045291307,-0.0009857546,0.1745444379,-0.0005880006,0.0013344053
558388.2100236320,9.7953322153,0.0013252315,-0.0018997406,0.1745987210,-0.0006097018,0.0014537288
558388.2200236320,9.7959249877,0.0045310756,-0.0025133897,0.1745770077,-0.0005880006,0.0014428812
558388.2300236319,9.7959316178,0.0037682327,-0.0020562092,0.1746095776,-0.0005880006,0.0013344053
558388.2400236320,9.7948741304,0.0026958202,-0.0012852675,0.1745987210,-0.0006097018,0.0014537288
558388.2500236320,9.7957772694,0.0039202038,-0.0022073805,0.1745661511,-0.0005771500,0.0013994909
558388.2600236320,9.7959273673,0.0039209680,-0.0025136687,0.1745444379,-0.0005771500,0.0013561005
558388.2700236320,9.7957893111,0.0023945874,-0.0014455292,0.1745878644,-0.0005771500,0.0014320336
558388.2800236320,9.7956308271,0.0039192313,-0.0014435629,0.1745661511,-0.0006205525,0.0014320336
558388.2900236320,9.7953208546,0.0036132741,-0.0022037138,0.1745661511,-0.0006097018,0.0013561005
558388.3000236320,9.7950217339,0.0020867544,-0.0022018738,0.1746204343,-0.0006097018,0.0014645764
558388.3100236320,9.7953232916,0.0036131353,-0.0018986942,0.1745878644,-0.0006097018,0.0013994909
558388.3200236320,9.7960872133,0.0039211766,-0.0015998789,0.1745661511,-0.0005880006,0.0013669481
558388.3300236320,9.7950205727,0.0026967927,-0.0020490851,0.1745661511,-0.0006205525,0.0014320336
558388.3400236320,9.7957790255,0.0031576387,-0.0023602390,0.1745878644,-0.0005771500,0.0014320336
558388.3500236321,9.7954715474,0.0034615114,-0.0025100718,0.1745335812,-0.0005880006,0.0013561005
558388.3600236319,9.7954800482,0.0031560409,-0.0015951527,0.1745661511,-0.0006097018,0.0014537288
558388.3700236320,9.7954728519,0.0043763951,-0.0018996142,0.1745444379,-0.0006097018,0.0014428812
558388.3800236320,9.7950188167,0.0034593578,-0.0018962265,0.1745661511,-0.0006097018,0.0013561005
558388.3900236320,9.7954812094,0.0025460027,-0.0017479415,0.1745661511,-0.0006097018,0.0014428812
558388.4000236320,9.7957736713,0.0045303809,-0.0023596112,0.1745770077,-0.0005771500,0.0014211860
558388.4100236320,9.7960829342,0.0037689274,-0.0022099877,0.1745227246,-0.0006097018,0.0013669481
558388.4200236320,9.7951761396,0.0025447521,-0.0017454040,0.1745770077,-0.0005880006,0.0014428812
558388.4300236320,9.7950145949,0.0039170774,-0.0022010368,0.1746095776,-0.0006097018,0.0014320336
558388.4400236320,9.7959280483,0.0046833942,-0.0020557907,0.1746530042,-0.0006097018,0.0013669481
558388.4500236320,9.7953220157,0.0030032359,-0.0023565025,0.1746095776,-0.0005771500,0.0014537288
558388.4600236320,9.7950132330,0.0023922249,-0.0031167929,0.1746095776,-0.0006097018,0.0014211860
558388.4700236320,9.7947156463,0.0042204641,-0.0012833012,0.1745878644,-0.0005880006,0.0013452529
558388.4800236319,9.7953310828,0.0022402541,-0.0015943025,0.1745770077,-0.0005880006,0.0014645764
558388.4900236320,9.7956222975,0.0039197174,-0.0025111312,0.1745335812,-0.0006205525,0.0014428812
558388.5000236320,9.7953190125,0.0034608861,-0.0025088030,0.1745227246,-0.0005771500,0.0013561005
558388.5100236320,9.7953292407,0.0020878661,-0.0018993918,0.1745335812,-0.0005880006,0.0014537288
558388.5200236320,9.7953226967,0.0037656622,-0.0018986245,0.1744901547,-0.0005880006,0.0014211860
558388.5300236320,9.7954690530,0.0028516815,-0.0031203898,0.1745335812,-0.0005880006,0.0013669481
558388.5400236320,9.7959291521,0.0034633872,-0.0025138780,0.1745335812,-0.0005771500,0.0014537288
558388.5500236320,9.7951684343,0.0048325865,-0.0015918479,0.1745444379,-0.0005880006,0.0014320336
558388.5600236320,9.7954806432,0.0030035140,-0.0015952225,0.1745118680,-0.0006097018,0.0013669481
558388.5700236320,9.7948661957,0.0025437793,-0.0023529056,0.1745661511,-0.0005880006,0.0014320336
558388.5800236320,9.7954709238,0.0033090539,-0.0026626513,0.1745987210,-0.0006097018,0.0013994909
558388.5900236320,9.7951659400,0.0042227565,-0.0022021660,0.1745661511,-0.0005771500,0.0013561005
558388.6000236321,9.7945641578,0.0023898630,-0.0020454184,0.1745987210,-0.0006097018,0.0014428812
558388.6100236319,9.7957760509,0.0039202732,-0.0023598902,0.1746095776,-0.0006205525,0.0014320336
558388.6200236320,9.7951701044,0.0031550681,-0.0022026543,0.1746204343,-0.0005880006,0.0013561005
558388.6300236320,9.7956283040,0.0030044170,-0.0022065303,0.1746095776,-0.0005880006,0.0014537288
558388.6400236320,9.7956242256,0.0049870586,-0.0017480942,0.1745335812,-0.0005880006,0.0013886433
558388.6500236320,9.7951719178,0.0030024718,-0.0020502143,0.1745227246,-0.0006097018,0.0013777957
558388.6600236320,9.7954774679,0.0016312578,-0.0026634186,0.1745878644,-0.0005880006,0.0014428812
558388.6700236320,9.7954764501,0.0037662180,-0.0017473835,0.1745661511,-0.0006205525,0.0013994909
558388.6800236320,9.7951659400,0.0042227565,-0.0022021660,0.1745661511,-0.0005771500,0.0013777957
558388.6900236320,9.7954721423,0.0033089845,-0.0025101415,0.1745661511,-0.0006097018,0.0014754240
558388.7000236320,9.7953226393,0.0031556934,-0.0022039230,0.1745335812,-0.0005880006,0.0013994909
558388.7100236320,9.7954818330,0.0026984602,-0.0015953620,0.1745227246,-0.0005771500,0.0013561005
558388.7200236320,9.7954770163,0.0033087067,-0.0019001025,0.1745770077,-0.0005771500,0.0014537288
558388.7300236319,9.7951641552,0.0046803373,-0.0022019567,0.1745661511,-0.0006097018,0.0013994909
558388.7400236320,9.7957795631,0.0023951430,-0.0026656073,0.1745770077,-0.0005880006,0.0013669481
558388.7500236320,9.7948680665,0.0030011518,-0.0018951671,0.1745770077,-0.0005880006,0.0014320336
558388.7600236320,9.7960829629,0.0040739118,-0.0020573384,0.1745878644,-0.0005662994,0.0013886433
558388.7700236320,9.7948602752,0.0043740329,-0.0021995588,0.1745770077,-0.0006205525,0.0013886433
558388.7800236320,9.7956246198,0.0026996409,-0.0028167088,0.1744358716,-0.0005771500,0.0014320336
558388.7900236320,9.7953208546,0.0036132741,-0.0022037138,0.1744901547,-0.0006205525,0.0013777957
558388.8000236320,9.7954800196,0.0028510565,-0.0017478020,0.1745118680,-0.0006097018,0.0013777957
558388.8100236320,9.7956210790,0.0039197868,-0.0026636410,0.1745227246,-0.0006097018,0.0014320336
558388.8200236320,9.7953196647,0.0039183280,-0.0022035742,0.1745661511,-0.0005880006,0.0014320336
558388.8300236320,9.7960852565,0.0025488510,-0.0025155653,0.1745444379,-0.0005880006,0.0013777957
558388.8400236320,9.7953262088,0.0022405319,-0.0022043416,0.1745987210,-0.0006097018,0.0014320336
558388.8500236321,9.7957785740,0.0048350876,-0.0015969229,0.1745878644,-0.0005771500,0.0013777957
558388.8600236319,9.7956211364,0.0045297556,-0.0023583425,0.1746204343,-0.0006097018,0.0013886433
558388.8700236320,9.7956252148,0.0025471140,-0.0028167786,0.1746312909,-0.0006205525,0.0014428812
558388.8800236320,9.7951688285,0.0025451688,-0.0026604626,0.1745987210,-0.0005662994,0.0013994909
558388.8900236320,9.7956283327,0.0033094014,-0.0020538810,0.1746095776,-0.0005880006,0.0013777957
558388.9000236320,9.7953184749,0.0042233818,-0.0022034347,0.1745878644,-0.0005662994,0.0014211860
558388.9100236320,9.7951664202,0.0028502920,-0.0028128328,0.1745661511,-0.0006205525,0.0014320336
558388.9200236320,9.7954739557,0.0031563881,-0.0023577015,0.1744901547,-0.0005771500,0.0013777957
558388.9300236320,9.7957839569,0.0037673297,-0.0014449014,0.1745010113,-0.0005771500,0.0014211860
558388.9400236320,9.7956252434,0.0028520984,-0.0026641293,0.1745010113,-0.0006097018,0.0014211860
558388.9500236320,9.7959292668,0.0046833248,-0.0019032809,0.1745335812,-0.0005771500,0.0013777957
558388.9600236320,9.7947081919,0.0026959587,-0.0029616061,0.1745661511,-0.0006205525,0.0014211860
558388.9700236320,9.7957808103,0.0027000579,-0.0023604483,0.1745878644,-0.0005554487,0.0014211860
558388.9800236319,9.7953208832,0.0039182585,-0.0020510645,0.1746747174,-0.0005771500,0.0013561005
558388.9900236320,9.7953239438,0.0040705771,-0.0015934655,0.1746204343,-0.0005771500,0.0013886433
558389.0000236320,9.7957755134,0.0046827690,-0.0020545219,0.1745770077,-0.0006097018,0.0014320336
558389.0100236320,9.7944007137,0.0029998314,-0.0031114389,0.1748809934,-0.0006097018,0.0013886433
558389.0200236320,9.7953237718,0.0022406708,-0.0025093611,0.1746095776,-0.0005662994,0.0013994909
558389.0300236320,9.7954782922,0.0039186061,-0.0014422942,0.1746095776,-0.0006097018,0.0014211860
558389.0400236320,9.7956228924,0.0037671905,-0.0025112010,0.1745878644,-0.0005771500,0.0013777957
558389.0500236320,9.7954708951,0.0030040695,-0.0028153006,0.1745661511,-0.0005880006,0.0013994909
558389.0600236320,9.7954746366,0.0039188144,-0.0018998235,0.1745335812,-0.0005880006,0.0013886433
558389.0700236320,9.7951713802,0.0037649675,-0.0017448460,0.1745444379,-0.0005880006,0.0013994909
558389.0800236320,9.7953177366,0.0028509868,-0.0029666113,0.1745010113,-0.0006097018,0.0014211860
558389.0900236320,9.7950078214,0.0031549983,-0.0034214636,0.1745335812,-0.0005662994,0.0013994909
558389.1000236321,9.7951713516,0.0034599831,-0.0018974953,0.1745770077,-0.0005880006,0.0013886433
558389.1100236319,9.7953196647,0.0039183280,-0.0022035742,0.1745444379,-0.0005880006,0.0013994909
558389.1200236320,9.7959292094,0.0040733560,-0.0022085794,0.1745661511,-0.0005771500,0.0013886433
558389.1300236320,9.7943952448,0.0031526361,-0.0037214082,0.1745987210,-0.0006097018,0.0013994909
558389.1400236320,9.7953177653,0.0031559711,-0.0028139621,0.1746204343,-0.0005662994,0.0014211860
558389.1500236320,9.7950140573,0.0046795731,-0.0018956685,0.1746530042,-0.0006205525,0.0013886433
558389.1600236320,9.7956319596,0.0030042087,-0.0017490010,0.1746530042,-0.0005771500,0.0014428812
558389.1700236320,9.7957717432,0.0034630397,-0.0031226483,0.1746638608,-0.0005880006,0.0013994909
558389.1800236320,9.7947033752,0.0033062053,-0.0032663466,0.1746312909,-0.0005771500,0.0013561005
558389.1900236320,9.7950176268,0.0037644116,-0.0018960870,0.1745770077,-0.0005771500,0.0014211860
558389.2000236320,9.7945679567,0.0039145767,-0.0008246427,0.1745335812,-0.0006205525,0.0014211860
558389.2100236330,9.7959290947,0.0028534184,-0.0028191765,0.1745118680,-0.0005771500,0.0013886433
558389.2200236330,9.7954653975,0.0028518898,-0.0035779191,0.1745010113,-0.0005771500,0.0013994909
558389.2300236330,9.7953251050,0.0034605389,-0.0017462542,0.1745770077,-0.0005771500,0.0013994909
558389.2400236330,9.7953233776,0.0045280885,-0.0014407464,0.1745661511,-0.0005662994,0.0013886433
558389.2500236330,9.7957790255,0.0031576387,-0.0023602390,0.1745444379,-0.0006205525,0.0014211860
558389.2600236330,9.7957692488,0.0028532098,-0.0037329663,0.1745770077,-0.0005771500,0.0013994909
558389.2700236330,9.7957717718,0.0037680241,-0.0029699990,0.1745878644,-0.0006205525,0.0013561005
558389.2800236330,9.7950219059,0.0039166608,-0.0012859782,0.1745878644,-0.0005662994,0.0014320336
558389.2900236330,9.7954727659,0.0034614419,-0.0023575620,0.1745770077,-0.0005880006,0.0014320336
558389.3000236331,9.7957747177,0.0027004051,-0.0031229971,0.1746530042,-0.0005880006,0.0013669481
558389.3100236329,9.7951651730,0.0025453771,-0.0031179919,0.1746204343,-0.0005771500,0.0013994909
558389.3200236330,9.7953185036,0.0045283662,-0.0020507855,0.1745335812,-0.0005662994,0.0013994909
558389.3300236330,9.7954759125,0.0045287137,-0.0014420152,0.1745335812,-0.0005880006,0.0013777957
558389.3400236330,9.7951724554,0.0022399761,-0.0023555826,0.1744575848,-0.0005880006,0.0014211860
558389.3500236330,9.7954659637,0.0023943785,-0.0037306381,0.1744575848,-0.0005880006,0.0014211860
558389.3600236330,9.7956156961,0.0049875447,-0.0028156625,0.1745010113,-0.0005771500,0.0013452529
558389.3700236330,9.7940999230,0.0031508301,-0.0024987926,0.1745661511,-0.0006205525,0.0014320336
558389.3800236330,9.7953226393,0.0031556934,-0.0022039230,0.1745770077,-0.0005554487,0.0014211860
558389.3900236330,9.7959248443,0.0030061537,-0.0032766360,0.1745878644,-0.0006097018,0.0013344053
558389.4000236330,9.7959249590,0.0042260912,-0.0026660390,0.1745661511,-0.0005662994,0.0013886433
558389.4100236330,9.7954722570,0.0045289220,-0.0018995444,0.1745878644,-0.0006205525,0.0014428812
558389.4200236331,9.7951736739,0.0022399066,-0.0022030728,0.1746095776,-0.0005880006,0.0013886433
558389.4300236329,9.7960749422,0.0030069178,-0.0035829243,0.1745987210,-0.0005771500,0.0013561005
558389.4400236330,9.7954661644,0.0045292692,-0.0026620932,0.1745878644,-0.0005880006,0.0013994909
558389.4500236330,9.7954782635,0.0036136217,-0.0015949435,0.1745335812,-0.0005771500,0.0014320336
558389.4600236330,9.7951778670,0.0014772026,-0.0020509118,0.1745444379,-0.0006097018,0.0013777957
558389.4700236330,9.7953171417,0.0030035137,-0.0029665416,0.1745770077,-0.0005880006,0.0013886433
558389.4800236330,9.7959147307,0.0055991112,-0.0032754502,0.1745987210,-0.0005662994,0.0014211860
558389.4900236330,9.7953135148,0.0033087064,-0.0032714216,0.1745878644,-0.0006097018,0.0014211860
558389.5000236330,9.7954829081,0.0011734687,-0.0022060986,0.1745878644,-0.0005880006,0.0013994909
558389.5100236330,9.7951670438,0.0030027495,-0.0026602533,0.1745227246,-0.0005771500,0.0013561005
558389.5200236330,9.7956139113,0.0054451255,-0.0028154532,0.1745444379,-0.0006097018,0.0013886433
558389.5300236330,9.7956229785,0.0046821437,-0.0020532532,0.1745335812,-0.0005771500,0.0014320336
558389.5400236330,9.7956324971,0.0022417130,-0.0020543693,0.1745878644,-0.0006097018,0.0013994909
558389.5500236331,9.7962377914,0.0025494763,-0.0025168340,0.1746204343,-0.0006097018,0.0013669481
558389.5600236329,9.7951573818,0.0039182582,-0.0034223836,0.1746638608,-0.0005880006,0.0013994909
558389.5700236330,9.7954661931,0.0048342536,-0.0025094440,0.1746530042,-0.0005662994,0.0013777957
558389.5800236330,9.7951743548,0.0030023329,-0.0017451948,0.1745661511,-0.0006097018,0.0013886433
558389.5900236330,9.7953298643,0.0022403236,-0.0017468123,0.1745227246,-0.0006097018,0.0014211860
558389.6000236330,9.7945533060,0.0036104255,-0.0028074091,0.1745010113,-0.0005771500,0.0013777957
558389.6100236330,9.7953045051,0.0046816569,-0.0037283230,0.1744792981,-0.0006097018,0.0013994909
558389.6200236330,9.7956253581,0.0040720360,-0.0020535322,0.1745118680,-0.0005662994,0.0014320336
558389.6300236330,9.7956355577,0.0023940316,-0.0015967702,0.1745444379,-0.0005880006,0.0013886433
558389.6400236330,9.7947069160,0.0020860594,-0.0034194144,0.1745770077,-0.0006097018,0.0013777957
558389.6500236330,9.7947009955,0.0039163129,-0.0032660676,0.1745118680,-0.0005662994,0.0013886433
558389.6600236330,9.7953161526,0.0054434583,-0.0018978572,0.1745444379,-0.0005771500,0.0013994909
558389.6700236331,9.7951731363,0.0030024023,-0.0018977045,0.1745227246,-0.0005771500,0.0014211860
558389.6800236329,9.7957758789,0.0020903669,-0.0032757858,0.1745878644,-0.0006205525,0.0013886433
558389.6900236330,9.7953148480,0.0045285745,-0.0025083147,0.1746312909,-0.0005662994,0.0013886433
558389.7000236330,9.7951610660,0.0042230343,-0.0028122050,0.1746638608,-0.0005662994,0.0014211860
558389.7100236330,9.7953208259,0.0033082897,-0.0023563630,0.1746312909,-0.0005880006,0.0013886433
558389.7200236330,9.7953238291,0.0028506396,-0.0022040625,0.1745878644,-0.0005771500,0.0013777957
558389.7300236330,9.7945586602,0.0022376833,-0.0028080369,0.1745227246,-0.0005880006,0.0013994909
558389.7400236330,9.7953105116,0.0037663566,-0.0034237221,0.1745661511,-0.0005771500,0.0013994909
558389.7500236330,9.7962289250,0.0054473488,-0.0022104891,0.1745335812,-0.0005880006,0.0013669481
558389.7600236330,9.7947154743,0.0023905577,-0.0021991969,0.1745661511,-0.0006097018,0.0014537288
558389.7700236330,9.7948654861,0.0014763687,-0.0029634329,0.1745335812,-0.0006097018,0.0013994909
558389.7800236330,9.7957638085,0.0033109988,-0.0041902863,0.1744901547,-0.0005771500,0.0013127101
558389.7900236330,9.7948602752,0.0043740329,-0.0021995588,0.1745118680,-0.0005662994,0.0014320336
558389.8000236331,9.7957761083,0.0045302420,-0.0020545917,0.1744575848,-0.0005880006,0.0014320336
558389.8100236329,9.7945628820,0.0017799636,-0.0025032267,0.1745010113,-0.0005880006,0.0013561005
558389.8200236330,9.7947087581,0.0022384474,-0.0031143252,0.1746095776,-0.0005771500,0.0014211860
558389.8300236330,9.7951514326,0.0054435274,-0.0034216860,0.1745987210,-0.0005662994,0.0014211860
558389.8400236330,9.7956223835,0.0048346706,-0.0020531834,0.1746095776,-0.0005554487,0.0013777957
558389.8500236330,9.7948655148,0.0017813531,-0.0028107837,0.1745770077,-0.0005880006,0.0013994909
558389.8600236330,9.7957753987,0.0034628314,-0.0026651190,0.1745770077,-0.0006097018,0.0013777957
558389.8700236330,9.7954588821,0.0048346703,-0.0034245025,0.1745335812,-0.0005771500,0.0013561005
558389.8800236330,9.7945603876,0.0011701337,-0.0031135447,0.1745661511,-0.0005771500,0.0014645764
558389.8900236330,9.7956290136,0.0040718277,-0.0015960029,0.1745444379,-0.0005662994,0.0013669481
558389.9000236330,9.7947071167,0.0042209501,-0.0023508695,0.1745118680,-0.0005880006,0.0013561005
558389.9100236330,9.7954599285,0.0030046944,-0.0041878884,0.1745444379,-0.0005771500,0.0014537288
558389.9200236331,9.7954667020,0.0037667735,-0.0029674615,0.1745335812,-0.0005662994,0.0013777957
558389.9300236329,9.7956324971,0.0022417130,-0.0020543693,0.1745878644,-0.0005771500,0.0013561005
558389.9400236330,9.7951654024,0.0049852522,-0.0018967977,0.1745335812,-0.0006097018,0.0014320336
558389.9500236330,9.7945454000,0.0037633691,-0.0037223979,0.1745661511,-0.0006097018,0.0014211860
558389.9600236330,9.7962310466,0.0020923816,-0.0035846116,0.1746095776,-0.0005662994,0.0013561005
558389.9700236330,9.7954752029,0.0034613031,-0.0020525425,0.1746312909,-0.0005771500,0.0013886433
558389.9800236330,9.7962379635,0.0043793826,-0.0016009384,0.1745770077,-0.0005662994,0.0013994909
558389.9900236330,9.7948511221,0.0042220615,-0.0034197066,0.1745661511,-0.0006097018,0.0013452529
558390.0000236330,9.7948557381,0.0014769242,-0.0041835110,0.1745770077,-0.0005662994,0.0014211860
558390.0100236330,9.7963837249,0.0036179288,-0.0028226339,0.1748809934,-0.0005771500,0.0014103385
558390.0200236330,9.7957791402,0.0043775762,-0.0017496419,0.1746095776,-0.0005880006,0.0013452529
558390.0300236330,9.7956270569,0.0026995021,-0.0025116893,0.1746095776,-0.0005880006,0.0014211860
558390.0400236330,9.7948516023,0.0028495970,-0.0040303734,0.1745770077,-0.0005880006,0.0013994909
558390.0500236331,9.7954582585,0.0046822128,-0.0035770820,0.1745335812,-0.0005771500,0.0013018625
558390.0600236329,9.7956313360,0.0028517512,-0.0019015805,0.1745335812,-0.0005662994,0.0014428812
558390.0700236330,9.7963899034,0.0045325348,-0.0016021373,0.1745335812,-0.0005880006,0.0014211860
558390.0800236330,9.7954623369,0.0026995712,-0.0040355181,0.1744901547,-0.0005771500,0.0013344053
558390.0900236330,9.7951554823,0.0031559014,-0.0040327714,0.1745335812,-0.0005662994,0.0013994909
558390.1000236330,9.7956187280,0.0048348789,-0.0025107127,0.1744901547,-0.0005771500,0.0014211860
558390.1100236330,9.7956344252,0.0033090542,-0.0012913322,0.1745444379,-0.0005880006,0.0013561005
558390.1200236330,9.7951681763,0.0020877269,-0.0029656914,0.1745770077,-0.0006097018,0.0013886433
558390.1300236330,9.7948462194,0.0039173548,-0.0041823949,0.1745444379,-0.0005662994,0.0014211860
558390.1400236330,9.7956266340,0.0046819354,-0.0015957239,0.1745987210,-0.0005880006,0.0013669481
558390.1500236330,9.7957851467,0.0034622759,-0.0014450409,0.1746530042,-0.0005771500,0.0014428812
558390.1600236330,9.7951712369,0.0022400455,-0.0025080923,0.1746204343,-0.0006097018,0.0014211860
558390.1700236331,9.7951517694,0.0025461409,-0.0047955992,0.1745987210,-0.0006097018,0.0013344053
558390.1800236329,9.7951477197,0.0048337669,-0.0041845138,0.1745878644,-0.0005662994,0.0013777957
558390.1900236330,9.7953226967,0.0037656622,-0.0018986245,0.1745987210,-0.0005880006,0.0014428812
558390.2000236330,9.7956306550,0.0020893250,-0.0023594586,0.1745878644,-0.0005554487,0.0013777957
558390.2100236330,9.7956136820,0.0030052503,-0.0040366474,0.1745770077,-0.0006097018,0.0013452529
558390.2200236330,9.7950000588,0.0048328639,-0.0035732061,0.1745335812,-0.0005771500,0.0014211860
558390.2300236330,9.7950109967,0.0045272545,-0.0023532675,0.1745335812,-0.0005771500,0.0013886433
558390.2400236330,9.7960912630,0.0016335506,-0.0022109643,0.1745227246,-0.0005880006,0.0013777957
558390.2500236330,9.7957723381,0.0033105128,-0.0031227180,0.1745770077,-0.0005771500,0.0013886433
558390.2600236330,9.7952960615,0.0055970962,-0.0043379435,0.1745118680,-0.0005880006,0.0013777957
558390.2700236330,9.7956155814,0.0037676071,-0.0034262595,0.1745335812,-0.0005662994,0.0014211860
558390.2800236340,9.7950266079,0.0020864767,-0.0015918348,0.1745444379,-0.0005880006,0.0014320336
558390.2900236340,9.7956288416,0.0022419213,-0.0025118986,0.1745661511,-0.0006097018,0.0013777957
558390.3000236340,9.7951470388,0.0040713406,-0.0046423919,0.1745878644,-0.0005771500,0.0013669481
558390.3100236340,9.7948462768,0.0045273236,-0.0038770963,0.1745444379,-0.0005771500,0.0014320336
558390.3200236340,9.7957778930,0.0040726613,-0.0020548009,0.1745444379,-0.0005662994,0.0013886433
558390.3300236340,9.7957904436,0.0014795648,-0.0017509673,0.1745661511,-0.0006205525,0.0013669481
558390.3400236340,9.7957608053,0.0037686490,-0.0043425868,0.1745227246,-0.0005771500,0.0013886433
558390.3500236340,9.7954485391,0.0049877527,-0.0046445108,0.1745878644,-0.0006097018,0.0013777957
558390.3600236340,9.7959267724,0.0040734949,-0.0025135990,0.1745987210,-0.0005771500,0.0014211860
558390.3700236341,9.7959442257,0.0017851051,-0.0014470770,0.1745878644,-0.0005771500,0.0013994909
558390.3800236339,9.7948606981,0.0023915996,-0.0031155241,0.1745444379,-0.0005771500,0.0013669481
558390.3900236340,9.7956028874,0.0048357816,-0.0044933396,0.1746095776,-0.0005771500,0.0013886433
558390.4000236340,9.7954606668,0.0043770895,-0.0034247118,0.1746204343,-0.0005771500,0.0014211860
558390.4100236340,9.7951773294,0.0022396983,-0.0017455436,0.1746204343,-0.0006097018,0.0014211860
558390.4200236340,9.7959321267,0.0027007526,-0.0025142268,0.1746530042,-0.0005771500,0.0013669481
558390.4300236340,9.7956119832,0.0043777842,-0.0035784903,0.1746095776,-0.0005662994,0.0013777957
558390.4400236340,9.7954606381,0.0040721051,-0.0035773610,0.1745770077,-0.0005662994,0.0014211860
558390.4500236340,9.7953256139,0.0023930588,-0.0022042718,0.1745444379,-0.0005880006,0.0013886433
558390.4600236340,9.7956294939,0.0026993632,-0.0022066698,0.1745335812,-0.0005554487,0.0013561005
558390.4700236340,9.7951598188,0.0039181193,-0.0031173641,0.1745770077,-0.0005880006,0.0013994909
558390.4800236340,9.7940829213,0.0037617710,-0.0043286307,0.1745987210,-0.0005880006,0.0014320336
558390.4900236340,9.7951676961,0.0034601914,-0.0023550245,0.1745770077,-0.0005771500,0.0013452529
558390.5000236341,9.7956307697,0.0033092626,-0.0017488615,0.1745010113,-0.0005771500,0.0013886433
558390.5100236339,9.7957747177,0.0027004051,-0.0031229971,0.1745010113,-0.0005771500,0.0014211860
558390.5200236340,9.7948395893,0.0046801977,-0.0046395754,0.1745227246,-0.0005880006,0.0013344053
558390.5300236340,9.7954648026,0.0030044167,-0.0035778493,0.1745118680,-0.0005662994,0.0013994909
558390.5400236340,9.7953209119,0.0042232429,-0.0018984152,0.1745770077,-0.0005880006,0.0014211860
558390.5500236340,9.7953153569,0.0034610944,-0.0029663323,0.1746095776,-0.0005880006,0.0013669481
558390.5600236340,9.7954671822,0.0023943090,-0.0035781284,0.1746204343,-0.0005662994,0.0013777957
558390.5700236340,9.7953039388,0.0051391683,-0.0035756040,0.1745878644,-0.0006097018,0.0013886433
558390.5800236340,9.7948607841,0.0033065528,-0.0026575763,0.1745661511,-0.0005771500,0.0013669481
558390.5900236340,9.7956276518,0.0025469752,-0.0025117590,0.1745118680,-0.0005880006,0.0014211860
558390.6000236340,9.7951573244,0.0033082894,-0.0037276821,0.1745118680,-0.0005880006,0.0013994909
558390.6100236340,9.7939332749,0.0020835579,-0.0047856586,0.1745878644,-0.0005662994,0.0013777957
558390.6200236341,9.7957753987,0.0034628314,-0.0026651190,0.1745335812,-0.0005880006,0.0013669481
558390.6300236339,9.7950158421,0.0042219924,-0.0018958777,0.1745661511,-0.0005880006,0.0013886433
558390.6400236340,9.7954684581,0.0030042084,-0.0031203201,0.1745987210,-0.0006097018,0.0013886433
558390.6500236340,9.7957619378,0.0028536264,-0.0046480249,0.1745335812,-0.0005771500,0.0013777957
558390.6600236340,9.7953141098,0.0031561795,-0.0032714913,0.1746095776,-0.0005771500,0.0013669481
558390.6700236340,9.7950176842,0.0043743804,-0.0015907885,0.1745770077,-0.0006097018,0.0013994909
558390.6800236340,9.7954660211,0.0030043473,-0.0034253396,0.1746312909,-0.0005880006,0.0013886433
558390.6900236340,9.7956075321,0.0023956287,-0.0051044947,0.1745987210,-0.0006097018,0.0013777957
558390.7000236340,9.7956137680,0.0039202035,-0.0035786995,0.1745770077,-0.0005445981,0.0013561005
558390.7100236340,9.7957798785,0.0057499713,-0.0009864653,0.1745335812,-0.0005771500,0.0013777957
558390.7200236340,9.7951719465,0.0033074562,-0.0018975650,0.1745227246,-0.0006205525,0.0013994909
558390.7300236340,9.7959192320,0.0016340363,-0.0046498517,0.1745010113,-0.0005662994,0.0013994909
558390.7400236340,9.7953013298,0.0033094008,-0.0047965192,0.1745118680,-0.0006097018,0.0013561005
558390.7500236341,9.7951640979,0.0040703685,-0.0025072553,0.1745444379,-0.0005554487,0.0013886433
558390.7600236339,9.7950236907,0.0034590800,-0.0012861875,0.1745444379,-0.0006097018,0.0014211860
558390.7700236340,9.7950065456,0.0025450990,-0.0038792719,0.1745661511,-0.0006097018,0.0013561005
558390.7800236340,9.7959011264,0.0034649843,-0.0060216024,0.1745770077,-0.0005554487,0.0013669481
558390.7900236340,9.7953099740,0.0045288523,-0.0031183538,0.1746095776,-0.0005554487,0.0014211860
558390.8000236340,9.7947210579,0.0034576906,-0.0009786305,0.1746204343,-0.0005880006,0.0013994909
558390.8100236340,9.7954781201,0.0020886997,-0.0023581898,0.1746530042,-0.0005880006,0.0013886433
558390.8200236340,9.7952934525,0.0037673287,-0.0055588587,0.1745987210,-0.0005662994,0.0013886433
558390.8300236340,9.7962118086,0.0048383522,-0.0046509243,0.1746312909,-0.0005771500,0.0013886433
558390.8400236340,9.7948681239,0.0036111206,-0.0015898685,0.1746204343,-0.0005554487,0.0013886433
558390.8500236340,9.7953347384,0.0022400458,-0.0011367733,0.1745770077,-0.0005880006,0.0013886433
558390.8600236340,9.7954544309,0.0028525147,-0.0049505069,0.1745661511,-0.0006097018,0.0013777957
558390.8700236341,9.7954454785,0.0048354341,-0.0051021098,0.1745770077,-0.0005445981,0.0013777957
558390.8800236339,9.7951646928,0.0039178416,-0.0025073250,0.1745770077,-0.0005880006,0.0014211860
558390.8900236340,9.7957929380,0.0020893947,-0.0011406492,0.1745227246,-0.0005771500,0.0013777957
558390.9000236340,9.7953177079,0.0025460024,-0.0031192606,0.1745878644,-0.0006097018,0.0013452529
558390.9100236340,9.7948316833,0.0048331413,-0.0055545642,0.1745661511,-0.0005662994,0.0013777957
558390.9200236340,9.7954588247,0.0042247015,-0.0037298010,0.1746095776,-0.0005662994,0.0014320336
558390.9300236340,9.7950260130,0.0022390036,-0.0015917651,0.1745878644,-0.0005880006,0.0013669481
558390.9400236340,9.7951712369,0.0022400455,-0.0025080923,0.1745661511,-0.0006097018,0.0013669481
558390.9500236340,9.7955974472,0.0052935707,-0.0049506596,0.1746095776,-0.0005880006,0.0013994909
558390.9600236340,9.7951500707,0.0039186748,-0.0043374421,0.1745335812,-0.0005554487,0.0013777957
558390.9700236340,9.7959394090,0.0023953516,-0.0017518175,0.1745770077,-0.0005771500,0.0013777957
558390.9800236340,9.7954818617,0.0030034446,-0.0014427127,0.1745227246,-0.0005880006,0.0013777957
558390.9900236340,9.7954563877,0.0042248403,-0.0040348206,0.1745118680,-0.0005771500,0.0013777957
558391.0000236341,9.7952995163,0.0034619971,-0.0049489592,0.1745335812,-0.0005662994,0.0013994909
558391.0100236339,9.7960798449,0.0033116244,-0.0028202360,0.1748809934,-0.0005662994,0.0014103385
558391.0200236340,9.7950230671,0.0033066226,-0.0014387670,0.1745878644,-0.0006097018,0.0013561005
558391.0300236340,9.7951596754,0.0023931974,-0.0038806104,0.1745987210,-0.0006097018,0.0013886433
558391.0400236340,9.7957504336,0.0036167471,-0.0057152444,0.1745878644,-0.0005662994,0.0013777957
558391.0500236340,9.7953135435,0.0036136908,-0.0031187723,0.1745227246,-0.0005771500,0.0013452529
558391.0600236340,9.7948716647,0.0023909747,-0.0017429363,0.1745770077,-0.0005771500,0.0014211860
558391.0700236340,9.7947064358,0.0034585239,-0.0028087476,0.1745987210,-0.0006097018,0.0013777957
558391.0800236340,9.7957535802,0.0046840188,-0.0047996976,0.1745770077,-0.0005771500,0.0013452529
558391.0900236340,9.7953067127,0.0022416429,-0.0046444977,0.1746312909,-0.0005771500,0.0014320336
558391.1000236340,9.7963915448,0.0025500321,-0.0023655930,0.1746530042,-0.0005445981,0.0013669481
558391.1100236340,9.7951695382,0.0036125794,-0.0020499353,0.1746747174,-0.0006314031,0.0013127101
558391.1200236341,9.7953092644,0.0034614416,-0.0037288811,0.1745770077,-0.0005771500,0.0014320336
558391.1300236339,9.7962129124,0.0036183451,-0.0051090116,0.1745878644,-0.0005771500,0.0014211860
558391.1400236340,9.7956239389,0.0019372147,-0.0032745869,0.1745661511,-0.0005445981,0.0013344053
558391.1500236340,9.7960871559,0.0033112078,-0.0019051774,0.1745770077,-0.0005880006,0.0013777957
558391.1600236340,9.7953015018,0.0051393071,-0.0038806235,0.1745661511,-0.0006314031,0.0013886433
558391.1700236340,9.7949986109,0.0023930581,-0.0049469100,0.1745227246,-0.0005662994,0.0013669481
558391.1800236340,9.7953206825,0.0017833678,-0.0031196094,0.1745118680,-0.0005662994,0.0013561005
558391.1900236340,9.7960817443,0.0040739813,-0.0022098482,0.1744792981,-0.0005662994,0.0013994909
558391.2000236340,9.7953051287,0.0048341144,-0.0035757435,0.1745335812,-0.0005771500,0.0013886433
558391.2100236340,9.7954544596,0.0031574991,-0.0047978576,0.1745444379,-0.0005771500,0.0013777957
558391.2200236340,9.7956196885,0.0020899499,-0.0037320464,0.1745770077,-0.0005554487,0.0013777957
558391.2300236340,9.7954752602,0.0040712719,-0.0017472440,0.1746095776,-0.0005880006,0.0013777957
558391.2400236340,9.7951597327,0.0030031661,-0.0035753119,0.1745878644,-0.0005554487,0.0013777957
558391.2500236341,9.7943897758,0.0033054408,-0.0043313775,0.1745770077,-0.0006205525,0.0013777957
558391.2600236339,9.7951567008,0.0031558319,-0.0038802616,0.1745010113,-0.0005554487,0.0013777957
558391.2700236340,9.7957790542,0.0034626231,-0.0022075897,0.1745444379,-0.0006097018,0.0013777957
558391.2800236340,9.7956155527,0.0034626227,-0.0035789088,0.1745661511,-0.0005662994,0.0013886433
558391.2900236340,9.7956155814,0.0037676071,-0.0034262595,0.1745444379,-0.0005662994,0.0013777957
558391.3000236340,9.7953074797,0.0039190224,-0.0037286718,0.1745335812,-0.0005880006,0.0013669481
558391.3100236340,9.7951681476,0.0017827425,-0.0031183406,0.1745227246,-0.0005554487,0.0013994909
558391.3200236340,9.7954673256,0.0039192310,-0.0028148820,0.1745335812,-0.0005771500,0.0013669481
558391.3300236340,9.7954575775,0.0039197865,-0.0040349601,0.1744250149,-0.0005771500,0.0013886433
558391.3400236340,9.7956100551,0.0033104430,-0.0043415274,0.1744792981,-0.0006097018,0.0013886433
558391.3500236340,9.7953165181,0.0028510562,-0.0031191211,0.1745010113,-0.0005662994,0.0013777957
558391.3600236350,9.7959290374,0.0022434496,-0.0031244751,0.1746638608,-0.0005880006,0.0013452529
558391.3700236350,9.7951579480,0.0034607469,-0.0035751026,0.1747507138,-0.0005771500,0.0014103385
558391.3800236350,9.7960592163,0.0042277581,-0.0049549541,0.1747072873,-0.0005662994,0.0013669481
558391.3900236350,9.7945446904,0.0026959584,-0.0043329252,0.1746095776,-0.0005880006,0.0013886433
558391.4000236350,9.7956264333,0.0025470446,-0.0026642688,0.1745227246,-0.0005445981,0.0013994909
558391.4100236350,9.7959297757,0.0036158447,-0.0023612985,0.1745010113,-0.0005880006,0.0013561005
558391.4200236350,9.7951470101,0.0037663562,-0.0047950411,0.1745335812,-0.0005771500,0.0013886433
558391.4300236350,9.7953056089,0.0034616499,-0.0041864104,0.1745444379,-0.0005771500,0.0013994909
558391.4400236350,9.7951638972,0.0019354777,-0.0035758002,0.1745661511,-0.0005662994,0.0013669481
558391.4500236351,9.7959328076,0.0034631789,-0.0020563487,0.1744901547,-0.0005662994,0.0013777957
558391.4600236350,9.7951592525,0.0043756306,-0.0029646450,0.1744792981,-0.0005880006,0.0013994909
558391.4700236350,9.7959150962,0.0030067092,-0.0044967141,0.1744792981,-0.0005771500,0.0013994909
558391.4800236350,9.7953140524,0.0025462107,-0.0035767899,0.1745118680,-0.0005662994,0.0013669481
558391.4900236350,9.7956222688,0.0036147330,-0.0026637805,0.1745661511,-0.0005771500,0.0013561005
558391.5000236350,9.7951634169,0.0033079422,-0.0029651333,0.1746095776,-0.0005771500,0.0013886433
558391.5100236350,9.7954569253,0.0034623446,-0.0043401889,0.1745878644,-0.0005771500,0.0013886433
558391.5200236350,9.7959180995,0.0025490590,-0.0043444136,0.1745878644,-0.0005662994,0.0013669481
558391.5300236350,9.7954678058,0.0025467665,-0.0034255489,0.1745987210,-0.0005771500,0.0013994909
558391.5400236350,9.7957741802,0.0034629008,-0.0028176288,0.1745661511,-0.0005554487,0.0013994909
558391.5500236350,9.7950090973,0.0037648977,-0.0029636553,0.1745770077,-0.0005880006,0.0013777957
558391.5600236350,9.7956099691,0.0023954898,-0.0047994752,0.1745444379,-0.0005771500,0.0013669481
558391.5700236351,9.7956136533,0.0027002659,-0.0041892966,0.1744901547,-0.0005554487,0.0013669481
558391.5800236349,9.7950108820,0.0033073169,-0.0029638646,0.1744792981,-0.0005771500,0.0013669481
558391.5900236350,9.7956234300,0.0030046948,-0.0028165693,0.1745010113,-0.0005554487,0.0013886433
558391.6000236350,9.7956156101,0.0040725915,-0.0032736103,0.1745227246,-0.0005771500,0.0013886433
558391.6100236350,9.7953026056,0.0039193001,-0.0043387109,0.1745661511,-0.0005771500,0.0013777957
558391.6200236350,9.7951584569,0.0023932668,-0.0040331202,0.1745661511,-0.0005771500,0.0013669481
558391.6300236350,9.7951646354,0.0033078728,-0.0028126236,0.1746095776,-0.0005771500,0.0013777957
558391.6400236350,9.7956234587,0.0033096792,-0.0026639200,0.1745770077,-0.0005771500,0.0013669481
558391.6500236350,9.7962238503,0.0033127358,-0.0038890730,0.1745770077,-0.0006097018,0.0013994909
558391.6600236350,9.7950004530,0.0025454462,-0.0046418207,0.1745878644,-0.0005554487,0.0013886433
558391.6700236350,9.7960707204,0.0034646374,-0.0038877345,0.1746204343,-0.0005771500,0.0013669481
558391.6800236350,9.7956211077,0.0042247712,-0.0025109917,0.1745987210,-0.0005771500,0.0013669481
558391.6900236350,9.7957723094,0.0030055284,-0.0032753673,0.1745661511,-0.0006097018,0.0013994909
558391.7000236351,9.7953049279,0.0026992237,-0.0046442884,0.1746204343,-0.0005554487,0.0013452529
558391.7100236350,9.7957644321,0.0034634563,-0.0040377068,0.1745770077,-0.0005880006,0.0013344053
558391.7200236350,9.7957753987,0.0034628314,-0.0026651190,0.1745444379,-0.0005554487,0.0014211860
558391.7300236350,9.7951658253,0.0030028190,-0.0028127631,0.1745878644,-0.0005880006,0.0014211860
558391.7400236350,9.7957643461,0.0025485031,-0.0044956546,0.1745878644,-0.0005662994,0.0013452529
558391.7500236350,9.7951518268,0.0031561097,-0.0044903007,0.1746095776,-0.0005771500,0.0013669481
558391.7600236350,9.7953111352,0.0039188140,-0.0032711425,0.1745878644,-0.0005662994,0.0014211860
558391.7700236350,9.7953184175,0.0036134130,-0.0025087333,0.1745878644,-0.0005662994,0.0013344053
558391.7800236350,9.7950040799,0.0022402535,-0.0043369407,0.1745770077,-0.0005880006,0.0013777957
558391.7900236350,9.7949939090,0.0042232423,-0.0046410534,0.1746312909,-0.0005771500,0.0013777957
558391.8000236350,9.7953093217,0.0040714104,-0.0034235826,0.1746095776,-0.0005771500,0.0013669481
558391.8100236350,9.7957746891,0.0023954207,-0.0032756463,0.1745770077,-0.0005662994,0.0013886433
558391.8200236351,9.7954660497,0.0033093317,-0.0032726903,0.1745878644,-0.0006205525,0.0013777957
558391.8300236349,9.7956088653,0.0036154968,-0.0043413878,0.1745444379,-0.0005880006,0.0013561005
558391.8400236350,9.7951578907,0.0028507781,-0.0038804011,0.1744575848,-0.0005771500,0.0013886433
558391.8500236350,9.7956215879,0.0028523067,-0.0031216586,0.1744792981,-0.0005771500,0.0013994909
558391.8600236350,9.7959242207,0.0028536962,-0.0034292156,0.1744901547,-0.0005771500,0.0013561005
558391.8700236350,9.7951518555,0.0034610941,-0.0043376514,0.1744901547,-0.0005662994,0.0013886433
558391.8800236350,9.7946954979,0.0037641332,-0.0040286861,0.1745335812,-0.0005771500,0.0013994909
558391.8900236350,9.7957657080,0.0040733557,-0.0035798985,0.1745661511,-0.0005771500,0.0013452529
558391.9000236350,9.7953085835,0.0026990153,-0.0041867591,0.1745987210,-0.0005554487,0.0013886433
558391.9100236350,9.7956185847,0.0033099569,-0.0032739590,0.1745770077,-0.0005771500,0.0013886433
558391.9200236350,9.7949975932,0.0045280184,-0.0040308748,0.1745878644,-0.0005662994,0.0013777957
558391.9300236350,9.7947008235,0.0020864066,-0.0041819632,0.1746095776,-0.0005662994,0.0013994909
558391.9400236350,9.7954598712,0.0023947257,-0.0044931869,0.1745878644,-0.0005554487,0.0013777957
558391.9500236351,9.7956149865,0.0039201340,-0.0034261898,0.1746312909,-0.0005662994,0.0013344053
558391.9600236350,9.7954624516,0.0039195088,-0.0034249210,0.1746204343,-0.0005771500,0.0013994909
558391.9700236350,9.7951536402,0.0030035133,-0.0043378607,0.1745661511,-0.0005880006,0.0013777957
558391.9800236350,9.7957637512,0.0027010300,-0.0044955849,0.1744901547,-0.0005662994,0.0013669481
558391.9900236350,9.7948528495,0.0031545119,-0.0037252144,0.1745010113,-0.0005554487,0.0013777957
558392.0000236350,9.7960756231,0.0037693441,-0.0031250462,0.1745118680,-0.0005771500,0.0013994909
558392.0100236350,9.7950084450,0.0033074558,-0.0032688841,0.1748375669,-0.0005771500,0.0013452529
558392.0200236350,9.7953061464,0.0026991542,-0.0044917787,0.1745878644,-0.0005880006,0.0013669481
558392.0300236350,9.7954611757,0.0033096094,-0.0038827293,0.1746312909,-0.0005554487,0.0013886433
558392.0400236350,9.7959242207,0.0028536962,-0.0034292156,0.1746204343,-0.0005662994,0.0013561005
558392.0500236350,9.7948522833,0.0036120233,-0.0035724954,0.1746095776,-0.0005880006,0.0013669481
558392.0600236350,9.7950047035,0.0023927109,-0.0041843612,0.1745335812,-0.0005771500,0.0013886433
558392.0700236351,9.7953067700,0.0028516117,-0.0043391992,0.1745770077,-0.0005771500,0.0013561005
558392.0800236349,9.7951585716,0.0036132044,-0.0034225231,0.1746095776,-0.0005445981,0.0013669481
558392.0900236350,9.7962268535,0.0028550856,-0.0037367725,0.1745878644,-0.0005771500,0.0013886433
558392.1000236350,9.7945453713,0.0034583847,-0.0038750472,0.1745770077,-0.0005880006,0.0013669481
558392.1100236350,9.7956081557,0.0025480862,-0.0049519152,0.1745661511,-0.0005554487,0.0013669481
558392.1200236350,9.7950035136,0.0026977648,-0.0041842217,0.1745227246,-0.0005771500,0.0013994909
558392.1300236350,9.7953141384,0.0034611639,-0.0031188421,0.1745335812,-0.0005445981,0.0013777957
558392.1400236350,9.7954660211,0.0030043473,-0.0034253396,0.1744901547,-0.0006097018,0.0013669481
558392.1500236350,9.7940924973,0.0019313091,-0.0040244483,0.1745661511,-0.0005880006,0.0013777957
558392.1600236350,9.7957602103,0.0039211759,-0.0043425171,0.1745444379,-0.0005771500,0.0013344053
558392.1700236350,9.7943916179,0.0034578288,-0.0040262882,0.1745444379,-0.0005554487,0.0013777957
558392.1800236350,9.7951651443,0.0022403927,-0.0032706411,0.1745444379,-0.0005662994,0.0014320336
558392.1900236350,9.7951542351,0.0028509864,-0.0043379304,0.1745878644,-0.0005880006,0.0013452529
558392.2000236351,9.7946990674,0.0028489717,-0.0040291047,0.1745987210,-0.0005662994,0.0013669481
558392.2100236350,9.7956082417,0.0034630394,-0.0044939674,0.1745770077,-0.0005662994,0.0013886433
558392.2200236350,9.7951639545,0.0025454465,-0.0032705016,0.1746530042,-0.0005880006,0.0013669481
558392.2300236350,9.7954557068,0.0034624141,-0.0044926986,0.1746095776,-0.0005662994,0.0013561005
558392.2400236350,9.7951573244,0.0033082894,-0.0037276821,0.1745878644,-0.0005880006,0.0013777957
558392.2500236350,9.7950052984,0.0022401840,-0.0041844309,0.1745118680,-0.0005771500,0.0013669481
558392.2600236350,9.7956112736,0.0033103736,-0.0041890176,0.1745661511,-0.0005662994,0.0013669481
558392.2700236350,9.7947003719,0.0037638555,-0.0034186471,0.1745661511,-0.0005771500,0.0013886433
558392.2800236350,9.7957619378,0.0028536264,-0.0046480249,0.1745444379,-0.0005662994,0.0013669481
558392.2900236350,9.7946972253,0.0026965837,-0.0043341940,0.1745118680,-0.0005662994,0.0013561005
558392.3000236350,9.7953152709,0.0025461412,-0.0034242801,0.1745227246,-0.0005662994,0.0013777957
558392.3100236350,9.7957651704,0.0048358514,-0.0032745302,0.1745010113,-0.0005771500,0.0013777957
558392.3200236351,9.7953073650,0.0026990848,-0.0043392689,0.1745118680,-0.0005771500,0.0013669481
558392.3300236349,9.7951560486,0.0026983901,-0.0041854904,0.1745118680,-0.0005771500,0.0013994909
558392.3400236350,9.7951597327,0.0030031661,-0.0035753119,0.1745987210,-0.0005662994,0.0013561005
558392.3500236350,9.7960719103,0.0031595836,-0.0038878740,0.1746204343,-0.0005554487,0.0013777957
558392.3600236350,9.7959102509,0.0033119713,-0.0049541039,0.1746095776,-0.0005771500,0.0013777957
558392.3700236350,9.7945453427,0.0031534003,-0.0040276964,0.1746204343,-0.0005662994,0.0013561005
558392.3800236350,9.7948589707,0.0034591491,-0.0028100163,0.1746095776,-0.0005771500,0.0013669481
558392.3900236350,9.7950072265,0.0033075253,-0.0034213939,0.1745987210,-0.0005771500,0.0013886433
558392.4000236350,9.7954484244,0.0037678151,-0.0052551079,0.1746095776,-0.0005554487,0.0013452529
558392.4100236350,9.7951566435,0.0025458631,-0.0041855602,0.1745770077,-0.0005771500,0.0013777957
558392.4200236350,9.7951640119,0.0031554153,-0.0029652031,0.1745444379,-0.0005771500,0.0013669481
558392.4300236360,9.7950035710,0.0033077336,-0.0038789231,0.1745335812,-0.0005771500,0.0013452529
558392.4400236360,9.7957607192,0.0028536958,-0.0048005346,0.1745227246,-0.0005662994,0.0013669481
558392.4500236360,9.7954539220,0.0039199948,-0.0044924894,0.1745118680,-0.0005771500,0.0013886433
558392.4600236360,9.7947045364,0.0026961670,-0.0034191354,0.1744792981,-0.0005771500,0.0013452529
558392.4700236360,9.7951633883,0.0030029578,-0.0031177826,0.1745010113,-0.0005880006,0.0013669481
558392.4800236360,9.7953062325,0.0036141074,-0.0040338309,0.1745661511,-0.0005771500,0.0013669481
558392.4900236360,9.7954526462,0.0033100955,-0.0049502977,0.1745878644,-0.0005554487,0.0013452529
558392.5000236360,9.7951596754,0.0023931974,-0.0038806104,0.1745770077,-0.0005880006,0.0013777957
558392.5100236360,9.7951591952,0.0037656619,-0.0032699436,0.1745878644,-0.0005662994,0.0013669481
558392.5200236361,9.7954587961,0.0039197171,-0.0038824503,0.1745987210,-0.0005880006,0.0013669481
558392.5300236359,9.7953091497,0.0022415040,-0.0043394782,0.1745987210,-0.0005771500,0.0013994909
558392.5400236360,9.7956130297,0.0025478084,-0.0043418761,0.1745878644,-0.0005445981,0.0013669481
558392.5500236360,9.7953081606,0.0046814486,-0.0032707938,0.1745335812,-0.0005880006,0.0013344053
558392.5600236360,9.7950053557,0.0028501528,-0.0038791324,0.1745661511,-0.0005771500,0.0013886433
558392.5700236360,9.7957595581,0.0034637341,-0.0046477459,0.1745227246,-0.0005771500,0.0013994909
558392.5800236360,9.7953054942,0.0022417123,-0.0047970074,0.1745010113,-0.0005662994,0.0013344053
558392.5900236360,9.7951548587,0.0030034439,-0.0041853509,0.1745335812,-0.0005554487,0.0013994909
558392.6000236360,9.7953154143,0.0040710632,-0.0026610338,0.1745661511,-0.0006097018,0.0013777957
558392.6100236360,9.7954593049,0.0028522370,-0.0043404679,0.1745661511,-0.0005662994,0.0013344053
558392.6200236360,9.7956063422,0.0027006825,-0.0051043552,0.1745987210,-0.0005662994,0.0013886433
558392.6300236360,9.7957686539,0.0030057367,-0.0037328966,0.1746095776,-0.0005662994,0.0013669481
558392.6400236360,9.7951573531,0.0036132738,-0.0035750328,0.1745661511,-0.0005771500,0.0013452529
558392.6500236359,9.7951597327,0.0030031661,-0.0035753119,0.1745770077,-0.0005771500,0.0013777957
558392.6600236360,9.7951548300,0.0026984595,-0.0043380002,0.1745444379,-0.0005771500,0.0013886433
558392.6700236360,9.7954593049,0.0028522370,-0.0043404679,0.1745227246,-0.0005771500,0.0013561005
558392.6800236360,9.7957680303,0.0028532792,-0.0038854761,0.1745227246,-0.0005662994,0.0013669481
558392.6900236360,9.7954587674,0.0036147327,-0.0040350996,0.1744792981,-0.0006097018,0.0013669481
558392.7000236360,9.7951590231,0.0019357555,-0.0041858392,0.1745010113,-0.0005662994,0.0013777957
558392.7100236360,9.7960736377,0.0020920341,-0.0041933819,0.1745010113,-0.0005662994,0.0013669481
558392.7200236360,9.7957602103,0.0039211759,-0.0043425171,0.1745661511,-0.0005554487,0.0013777957
558392.7300236360,9.7960628432,0.0039225654,-0.0046500741,0.1745661511,-0.0005771500,0.0013669481
558392.7400236360,9.7951572671,0.0026983206,-0.0040329807,0.1745987210,-0.0006097018,0.0013452529
558392.7500236360,9.7956191222,0.0025474612,-0.0035793273,0.1746204343,-0.0005554487,0.0013669481
558392.7600236360,9.7951531026,0.0037660090,-0.0040324924,0.1746530042,-0.0005771500,0.0013561005
558392.7700236361,9.7948473519,0.0030023322,-0.0044878329,0.1746638608,-0.0005771500,0.0013777957
558392.7800236359,9.7956069658,0.0028531400,-0.0049517757,0.1745878644,-0.0005771500,0.0013777957
558392.7900236360,9.7951591092,0.0028507087,-0.0037278914,0.1745878644,-0.0005662994,0.0013669481
558392.8000236360,9.7962292619,0.0025499623,-0.0035844023,0.1745661511,-0.0005771500,0.0013669481
558392.8100236360,9.7956100264,0.0030054586,-0.0044941766,0.1745444379,-0.0005771500,0.0013777957
558392.8200236360,9.7955985223,0.0037685793,-0.0055613962,0.1745878644,-0.0005662994,0.0013452529
558392.8300236360,9.7947033465,0.0030012209,-0.0034189959,0.1745227246,-0.0005771500,0.0013669481
558392.8400236360,9.7950119858,0.0020873099,-0.0034219519,0.1745010113,-0.0005771500,0.0013886433
558392.8500236360,9.7956154667,0.0025476695,-0.0040368566,0.1745661511,-0.0005771500,0.0013561005
558392.8600236360,9.7946905665,0.0031544422,-0.0049440237,0.1745118680,-0.0005771500,0.0013669481
558392.8700236360,9.7957607766,0.0034636646,-0.0044952361,0.1745987210,-0.0005771500,0.0013777957
558392.8800236360,9.7950041086,0.0025452379,-0.0041842914,0.1746312909,-0.0005771500,0.0013561005
558392.8900236360,9.7956117538,0.0019379091,-0.0047996844,0.1746204343,-0.0005554487,0.0013561005
558392.9000236359,9.7954580578,0.0025473220,-0.0046456269,0.1746204343,-0.0005662994,0.0013669481
558392.9100236360,9.7957596154,0.0040737029,-0.0043424473,0.1746204343,-0.0005771500,0.0013452529
558392.9200236360,9.7949999441,0.0036129263,-0.0041838031,0.1745770077,-0.0005880006,0.0013777957
558392.9300236360,9.7953212774,0.0016308409,-0.0031196791,0.1745118680,-0.0005554487,0.0013886433
558392.9400236360,9.7959186944,0.0023965320,-0.0043444834,0.1745227246,-0.0005771500,0.0013452529
558392.9500236360,9.7951384806,0.0037668423,-0.0058626095,0.1745227246,-0.0005771500,0.0013561005
558392.9600236360,9.7951469814,0.0034613718,-0.0049476904,0.1745444379,-0.0005662994,0.0013886433
558392.9700236360,9.7957759362,0.0027003357,-0.0029704873,0.1745335812,-0.0005771500,0.0013669481
558392.9800236360,9.7957746030,0.0014804675,-0.0037335941,0.1745227246,-0.0005662994,0.0013561005
558392.9900236360,9.7951438922,0.0030040688,-0.0055579387,0.1745878644,-0.0005771500,0.0013669481
558393.0000236360,9.7948370949,0.0040703678,-0.0052498934,0.1745444379,-0.0005771500,0.0013561005
558393.0100236360,9.7954623656,0.0030045556,-0.0038828689,0.1748701367,-0.0005554487,0.0013777957
558393.0200236361,9.7956239963,0.0025471835,-0.0029692883,0.1745661511,-0.0006097018,0.0013669481
558393.0300236359,9.7959162861,0.0027016553,-0.0044968536,0.1745878644,-0.0005771500,0.0013561005
558393.0400236360,9.7952976456,0.0030046247,-0.0054066977,0.1746204343,-0.0005662994,0.0013777957
558393.0500236360,9.7951548300,0.0026984595,-0.0043380002,0.1745987210,-0.0005662994,0.0013669481
558393.0600236360,9.7954719702,0.0014790781,-0.0034260371,0.1745878644,-0.0005771500,0.0013777957
558393.0700236360,9.7950035423,0.0030027492,-0.0040315724,0.1746095776,-0.0005662994,0.0013777957
558393.0800236360,9.7953067414,0.0025466273,-0.0044918484,0.1745444379,-0.0005662994,0.0013561005
558393.0900236360,9.7957637225,0.0023960456,-0.0046482341,0.1746204343,-0.0005771500,0.0013561005
558393.1000236360,9.7949956364,0.0031556927,-0.0049465612,0.1745661511,-0.0005662994,0.0013561005
558393.1100236360,9.7951578907,0.0028507781,-0.0038804011,0.1745770077,-0.0005662994,0.0013777957
558393.1200236360,9.7962238216,0.0030077514,-0.0040417223,0.1745770077,-0.0005662994,0.0013777957
558393.1300236360,9.7951530166,0.0028510559,-0.0044904402,0.1745770077,-0.0005880006,0.0013561005
558393.1400236360,9.7948479181,0.0025448209,-0.0046405520,0.1745335812,-0.0005771500,0.0013669481
558393.1500236359,9.7954617706,0.0031570825,-0.0038827991,0.1745010113,-0.0005662994,0.0013452529
558393.1600236360,9.7957685965,0.0023957679,-0.0040381951,0.1745227246,-0.0005662994,0.0013669481
558393.1700236360,9.7957632136,0.0034635258,-0.0041902166,0.1745335812,-0.0005771500,0.0013886433
558393.1800236360,9.7956070232,0.0034631088,-0.0046464771,0.1745118680,-0.0005771500,0.0013452529
558393.1900236360,9.7945446617,0.0023909740,-0.0044855745,0.1745227246,-0.0005771500,0.0013669481
558393.2000236360,9.7953073936,0.0030040692,-0.0041866196,0.1745878644,-0.0005771500,0.0013669481
558393.2100236360,9.7954588247,0.0042247015,-0.0037298010,0.1746530042,-0.0005880006,0.0013344053
558393.2200236360,9.7953085835,0.0026990153,-0.0041867591,0.1746312909,-0.0005880006,0.0013886433
558393.2300236360,9.7951554536,0.0028509170,-0.0041854207,0.1746095776,-0.0005771500,0.0013669481
558393.2400236360,9.7946911328,0.0026969309,-0.0050967427,0.1746095776,-0.0005771500,0.0013344053
558393.2500236360,9.7957656219,0.0031584025,-0.0040378463,0.1745987210,-0.0005662994,0.0013777957
558393.2600236360,9.7960683121,0.0037697607,-0.0040401048,0.1745987210,-0.0005880006,0.0013886433
558393.2700236361,9.7951529593,0.0022410871,-0.0047957387,0.1745661511,-0.0005880006,0.0013127101
558393.2800236359,9.7940815594,0.0022369184,-0.0052443868,0.1745661511,-0.0005880006,0.0013561005
558393.2900236360,9.7954563304,0.0036148716,-0.0043401191,0.1745444379,-0.0005662994,0.0013777957
558393.3000236360,9.7960646852,0.0040749534,-0.0043449848,0.1745227246,-0.0005554487,0.0013452529
558393.3100236360,9.7953158085,0.0017836455,-0.0037296484,0.1745227246,-0.0005771500,0.0013669481
558393.3200236360,9.7946960068,0.0026966531,-0.0044867037,0.1745335812,-0.0005771500,0.0013561005
558393.3300236360,9.7948521686,0.0023920857,-0.0041830924,0.1745227246,-0.0005771500,0.0013344053
558393.3400236360,9.7953049279,0.0026992237,-0.0046442884,0.1745444379,-0.0005662994,0.0013777957
558393.3500236360,9.7953110491,0.0030038609,-0.0037290904,0.1745227246,-0.0005554487,0.0013452529
558393.3600236360,9.7951482286,0.0037662868,-0.0046425314,0.1745335812,-0.0006097018,0.0013452529
558393.3700236360,9.7948479181,0.0025448209,-0.0046405520,0.1744901547,-0.0005771500,0.0013777957
558393.3800236360,9.7953054942,0.0022417123,-0.0047970074,0.1745335812,-0.0005554487,0.0013777957
558393.3900236360,9.7956222115,0.0030047642,-0.0029690790,0.1745335812,-0.0005771500,0.0013452529
558393.4000236359,9.7959181569,0.0031590278,-0.0040391151,0.1745444379,-0.0005771500,0.0013669481
558393.4100236360,9.7956015256,0.0033109291,-0.0054090957,0.1747832837,-0.0005988512,0.0013669481
558393.4200236360,9.7950052124,0.0013252308,-0.0046423788,0.1747615704,-0.0005554487,0.0013452529
558393.4300236360,9.7954653688,0.0025469054,-0.0037305684,0.1746964307,-0.0005554487,0.0013561005
558393.4400236360,9.7960665847,0.0048373102,-0.0037345970,0.1745118680,-0.0005445981,0.0013561005
558393.4500236360,9.7945355946,0.0031539558,-0.0052477745,0.1745444379,-0.0005771500,0.0013669481
558393.4600236360,9.7950015855,0.0016304236,-0.0049472588,0.1745661511,-0.0005880006,0.0013777957
558393.4700236360,9.7953164321,0.0019361030,-0.0035770689,0.1745878644,-0.0005445981,0.0013344053
558393.4800236360,9.7956155814,0.0037676071,-0.0034262595,0.1746204343,-0.0005662994,0.0013452529
558393.4900236360,9.7954490480,0.0039202726,-0.0051025284,0.1746095776,-0.0005880006,0.0013777957
558393.5000236370,9.7950003670,0.0016304930,-0.0050997685,0.1746095776,-0.0005662994,0.0013669481
558393.5100236370,9.7947068300,0.0011711062,-0.0038773622,0.1745444379,-0.0005662994,0.0013452529
558393.5200236370,9.7953026056,0.0039193001,-0.0043387109,0.1745987210,-0.0005662994,0.0013452529
558393.5300236370,9.7953002546,0.0048343922,-0.0041857826,0.1745227246,-0.0005662994,0.0013777957
558393.5400236370,9.7953030285,0.0019368668,-0.0052546762,0.1745661511,-0.0005662994,0.0013669481
558393.5500236370,9.7945500160,0.0010182317,-0.0044862023,0.1746095776,-0.0005771500,0.0013127101
558393.5600236370,9.7954538647,0.0033100260,-0.0047977879,0.1745770077,-0.0005554487,0.0013452529
558393.5700236370,9.7956065143,0.0045305889,-0.0041884595,0.1745987210,-0.0005771500,0.0013886433
558393.5800236370,9.7953109631,0.0020889077,-0.0041870382,0.1745227246,-0.0005771500,0.0013777957
558393.5900236371,9.7951570663,0.0005634298,-0.0051015255,0.1745227246,-0.0005771500,0.0013452529
558393.6000236369,9.7946942221,0.0031542339,-0.0044864944,0.1745770077,-0.0005554487,0.0013452529
558393.6100236370,9.7956058907,0.0043781314,-0.0043410391,0.1745987210,-0.0005662994,0.0013561005
558393.6200236370,9.7959144727,0.0028542517,-0.0046492936,0.1746204343,-0.0005771500,0.0013669481
558393.6300236370,9.7951572384,0.0023933362,-0.0041856299,0.1746638608,-0.0005662994,0.0013344053
558393.6400236370,9.7940858385,0.0023891676,-0.0046342780,0.1745878644,-0.0006097018,0.0013561005
558393.6500236370,9.7956063709,0.0030056669,-0.0049517059,0.1745770077,-0.0005554487,0.0013669481
558393.6600236370,9.7959090324,0.0033120407,-0.0051066136,0.1745335812,-0.0005771500,0.0013561005
558393.6700236370,9.7951609226,0.0026981123,-0.0035754514,0.1745335812,-0.0005771500,0.0013561005
558393.6800236370,9.7951530453,0.0031560402,-0.0043377909,0.1745227246,-0.0005771500,0.0013561005
558393.6900236370,9.7951517694,0.0025461409,-0.0047955992,0.1745010113,-0.0005771500,0.0013561005
558393.7000236370,9.7957624466,0.0017861463,-0.0051060424,0.1745118680,-0.0005445981,0.0013669481
558393.7100236370,9.7956130010,0.0022428240,-0.0044945254,0.1744901547,-0.0005771500,0.0013669481
558393.7200236371,9.7956136820,0.0030052503,-0.0040366474,0.1745335812,-0.0005880006,0.0013452529
558393.7300236369,9.7950022951,0.0026978342,-0.0043367314,0.1745444379,-0.0005662994,0.0013561005
558393.7400236370,9.7954622795,0.0020896024,-0.0043408167,0.1746638608,-0.0005880006,0.0013561005
558393.7500236370,9.7956057473,0.0028532094,-0.0051042854,0.1747181439,-0.0005337475,0.0013452529
558393.7600236370,9.7957595581,0.0034637341,-0.0046477459,0.1746855740,-0.0005771500,0.0013561005
558393.7700236370,9.7948461334,0.0030024017,-0.0046403427,0.1745987210,-0.0005880006,0.0013669481
558393.7800236370,9.7950065742,0.0028500834,-0.0037266226,0.1745118680,-0.0005771500,0.0013561005
558393.7900236370,9.7956027441,0.0033108596,-0.0052565859,0.1745118680,-0.0005771500,0.0013452529
558393.8000236370,9.7959078139,0.0033121102,-0.0052591234,0.1744792981,-0.0005662994,0.0013777957
558393.8100236370,9.7948558528,0.0026968618,-0.0035729139,0.1745335812,-0.0005880006,0.0013127101
558393.8200236370,9.7951608366,0.0017831591,-0.0040333992,0.1745335812,-0.0005771500,0.0013669481
558393.8300236370,9.7957564975,0.0033114155,-0.0051053449,0.1745770077,-0.0005662994,0.0013669481
558393.8400236371,9.7959102222,0.0030069869,-0.0051067531,0.1745444379,-0.0005662994,0.0013561005
558393.8500236369,9.7956057760,0.0031581938,-0.0049516361,0.1745335812,-0.0005662994,0.0013561005
558393.8600236370,9.7950028901,0.0025453073,-0.0043368012,0.1745335812,-0.0005880006,0.0013561005
558393.8700236370,9.7948521686,0.0023920857,-0.0041830924,0.1745661511,-0.0005771500,0.0013344053
558393.8800236370,9.7957637512,0.0027010300,-0.0044955849,0.1745987210,-0.0005662994,0.0013344053
558393.8900236370,9.7954513990,0.0030051805,-0.0052554567,0.1746204343,-0.0005880006,0.0013669481
558393.9000236370,9.7956082130,0.0031580550,-0.0046466166,0.1746095776,-0.0005771500,0.0013344053
558393.9100236370,9.7948521399,0.0020871013,-0.0043357417,0.1745770077,-0.0005662994,0.0013669481
558393.9200236370,9.7948544909,0.0011720092,-0.0044886700,0.1745227246,-0.0005771500,0.0013777957
558393.9300236370,9.7966727821,0.0017901757,-0.0057236939,0.1745227246,-0.0005662994,0.0013127101
558393.9400236370,9.7951397564,0.0043767417,-0.0054048012,0.1745444379,-0.0005880006,0.0013344053
558393.9500236370,9.7950120432,0.0026972787,-0.0031166534,0.1745118680,-0.0005771500,0.0013994909
558393.9600236370,9.7963774890,0.0020933540,-0.0043484291,0.1745770077,-0.0005880006,0.0013561005
558393.9700236371,9.7942351694,0.0007125523,-0.0058563922,0.1745770077,-0.0005771500,0.0013127101
558393.9800236369,9.7966703451,0.0017903146,-0.0060287134,0.1745335812,-0.0005554487,0.0013777957
558393.9900236370,9.7962022612,0.0069737984,-0.0048024574,0.1745335812,-0.0005662994,0.0013018625
558394.0000236370,9.7948648339,0.0010189268,-0.0032686617,0.1745444379,-0.0006097018,0.0013777957
558394.0100236370,9.7951680042,0.0002578205,-0.0038815870,0.1748809934,-0.0005771500,0.0013777957
558394.0200236370,9.7957503763,0.0030067783,-0.0060205429,0.1745770077,-0.0005880006,0.0012801673
558394.0300236370,9.7961953157,0.0043818130,-0.0069387799,0.1745770077,-0.0005662994,0.0013561005
558394.0400236370,9.7956155241,0.0031576383,-0.0037315581,0.1745118680,-0.0005662994,0.0014320336
558394.0500236370,9.7956329773,0.0008692485,-0.0026650361,0.1744901547,-0.0005880006,0.0012910149
558394.0600236370,9.7957660448,0.0011759692,-0.0049538117,0.1745227246,-0.0005771500,0.0013344053
558394.0700236370,9.7954314513,0.0046837404,-0.0069322967,0.1745444379,-0.0005662994,0.0013886433
558394.0800236370,9.7959182142,0.0037689966,-0.0037338165,0.1745661511,-0.0005771500,0.0013344053
558394.0900236371,9.7951850060,-0.0003531204,-0.0020517489,0.1745878644,-0.0005880006,0.0013561005
558394.1000236369,9.7956105353,0.0019379785,-0.0049521942,0.1745335812,-0.0006097018,0.0013452529
558394.1100236370,9.7954320462,0.0045312135,-0.0069323665,0.1745444379,-0.0005554487,0.0013127101
558394.1200236370,9.7956087793,0.0027005436,-0.0047993357,0.1745878644,-0.0005771500,0.0014211860
558394.1300236370,9.7950204294,0.0011718707,-0.0028123314,0.1745770077,-0.0005771500,0.0013669481
558394.1400236370,9.7954683147,0.0014792864,-0.0038835664,0.1746095776,-0.0005880006,0.0013018625
558394.1500236370,9.7948346293,0.0037655223,-0.0057075622,0.1745227246,-0.0005771500,0.0013669481
558394.1600236370,9.7952940474,0.0036148018,-0.0055589284,0.1745444379,-0.0005445981,0.0013994909
558394.1700236370,9.7953158085,0.0017836455,-0.0037296484,0.1745661511,-0.0006097018,0.0013018625
558394.1800236370,9.7954676625,0.0010218445,-0.0041887952,0.1746095776,-0.0005771500,0.0013452529
558394.1900236370,9.7952953233,0.0042247011,-0.0051011201,0.1746095776,-0.0005771500,0.0013777957
558394.2000236370,9.7957540605,0.0033115543,-0.0054103644,0.1745987210,-0.0005662994,0.0013561005
558394.2100236370,9.7956189215,0.0004125704,-0.0046478722,0.1746204343,-0.0005771500,0.0013452529
558394.2200236371,9.7954646879,0.0017844791,-0.0041884464,0.1745878644,-0.0006097018,0.0013344053
558394.2300236369,9.7946919284,0.0046792947,-0.0040282676,0.1746095776,-0.0005771500,0.0013452529
558394.2400236370,9.7951402080,0.0026992928,-0.0061681173,0.1745770077,-0.0005771500,0.0013777957
558394.2500236370,9.7956141048,0.0010228170,-0.0049526127,0.1745118680,-0.0005662994,0.0013886433
558394.2600236370,9.7956166565,0.0022426157,-0.0040369961,0.1745444379,-0.0005662994,0.0012910149
558394.2700236370,9.7946924373,0.0036118146,-0.0044862852,0.1745661511,-0.0006205525,0.0013561005
558394.2800236370,9.7948388510,0.0033078027,-0.0054027520,0.1745770077,-0.0005662994,0.0013777957
558394.2900236370,9.7959155478,0.0013292603,-0.0052600302,0.1746095776,-0.0005771500,0.0013452529
558394.3000236370,9.7954676911,0.0013268289,-0.0040361459,0.1746638608,-0.0005880006,0.0013344053
558394.3100236370,9.7954575202,0.0033098177,-0.0043402586,0.1746095776,-0.0005880006,0.0013561005
558394.3200236370,9.7951410323,0.0049866410,-0.0049469929,0.1745010113,-0.0005880006,0.0013561005
558394.3300236370,9.7956152947,0.0007177632,-0.0049527522,0.1745118680,-0.0005445981,0.0013777957
558394.3400236371,9.7956118112,0.0025478779,-0.0044943859,0.1745227246,-0.0005662994,0.0013344053
558394.3500236369,9.7951681763,0.0020877269,-0.0029656914,0.1745118680,-0.0006097018,0.0013127101
558394.3600236370,9.7948333821,0.0034606073,-0.0060127213,0.1745227246,-0.0005771500,0.0013452529
558394.3700236370,9.7952982405,0.0028520978,-0.0054067675,0.1745444379,-0.0005662994,0.0013777957
558394.3800236370,9.7957745457,0.0008704987,-0.0040388927,0.1745878644,-0.0005554487,0.0013561005
558394.3900236370,9.7963762705,0.0020934235,-0.0045009389,0.1747507138,-0.0005880006,0.0013344053
558394.4000236370,9.7948461621,0.0033073861,-0.0044876934,0.1747072873,-0.0005771500,0.0013127101
558394.4100236370,9.7954512843,0.0017852429,-0.0058660538,0.1746095776,-0.0005880006,0.0013886433
558394.4200236370,9.7948339483,0.0030030960,-0.0061654403,0.1745661511,-0.0005662994,0.0013344053
558394.4300236370,9.7950137419,0.0013247448,-0.0035748104,0.1745227246,-0.0005662994,0.0013561005
558394.4400236370,9.7950035710,0.0033077336,-0.0038789231,0.1745010113,-0.0006205525,0.0013561005
558394.4500236370,9.7959107024,0.0016345224,-0.0057174200,0.1745227246,-0.0005554487,0.0013561005
558394.4600236370,9.7956020058,0.0019384646,-0.0060197625,0.1745010113,-0.0005554487,0.0013344053
558394.4700236371,9.7959217550,0.0025488507,-0.0038868843,0.1745987210,-0.0005771500,0.0013452529
558394.4800236369,9.7959170530,0.0043790348,-0.0035810277,0.1746095776,-0.0005880006,0.0013452529
558394.4900236370,9.7945410062,0.0023911823,-0.0049431038,0.1745770077,-0.0006097018,0.0013561005
558394.5000236370,9.7949881246,0.0010212186,-0.0069301646,0.1745444379,-0.0005445981,0.0013452529
558394.5100236370,9.7957776636,0.0016327861,-0.0032759951,0.1745770077,-0.0005662994,0.0013452529
558394.5200236370,9.7959145874,0.0040741893,-0.0040386965,0.1745335812,-0.0005880006,0.0013561005
558394.5300236370,9.7957589058,0.0030062922,-0.0049529746,0.1745118680,-0.0005880006,0.0013561005
558394.5400236370,9.7948441479,0.0013250916,-0.0057086783,0.1745878644,-0.0005880006,0.0013344053
558394.5500236370,9.7959143580,0.0016343141,-0.0052598907,0.1745878644,-0.0005554487,0.0013344053
558394.5600236370,9.7953123537,0.0039187446,-0.0031186328,0.1745878644,-0.0005554487,0.0013452529
558394.5700236370,9.7954659064,0.0017844097,-0.0040359367,0.1746095776,-0.0005880006,0.0013777957
558394.5800236380,9.7951504936,0.0019362415,-0.0052534075,0.1745987210,-0.0005880006,0.0013344053
558394.5900236380,9.7948406071,0.0025452375,-0.0055556105,0.1745444379,-0.0005554487,0.0012910149
558394.6000236380,9.7956167139,0.0028525845,-0.0037316976,0.1745444379,-0.0005662994,0.0013777957
558394.6100236380,9.7957668691,0.0034633174,-0.0037326873,0.1745227246,-0.0005880006,0.0013669481
558394.6200236380,9.7951456196,0.0019365193,-0.0058634465,0.1745335812,-0.0005662994,0.0013018625
558394.6300236380,9.7942327038,0.0004077068,-0.0063140609,0.1745227246,-0.0005662994,0.0013561005
558394.6400236380,9.7960639756,0.0030075427,-0.0049555121,0.1745118680,-0.0005771500,0.0013452529
558394.6500236380,9.7963818541,0.0031605564,-0.0032803725,0.1745118680,-0.0005662994,0.0013344053
558394.6600236380,9.7956104780,0.0013280097,-0.0052574927,0.1745661511,-0.0006097018,0.0013777957
558394.6700236381,9.7948338910,0.0023931272,-0.0064707388,0.1745444379,-0.0005771500,0.0013018625
558394.6800236379,9.7949967975,0.0025456545,-0.0050993500,0.1745010113,-0.0005880006,0.0013018625
558394.6900236380,9.7962280434,0.0025500318,-0.0037369121,0.1745118680,-0.0005662994,0.0013886433
558394.7000236380,9.7951554823,0.0031559014,-0.0040327714,0.1745770077,-0.0005771500,0.0013452529
558394.7100236380,9.7951509738,0.0005637770,-0.0058640743,0.1745878644,-0.0006097018,0.0013344053
558394.7200236380,9.7943774474,0.0017812132,-0.0066197214,0.1745987210,-0.0005771500,0.0013561005
558394.7300236380,9.7962123461,0.0040758564,-0.0049562926,0.1746204343,-0.0005554487,0.0013127101
558394.7400236380,9.7953159232,0.0030035831,-0.0031190513,0.1746095776,-0.0005554487,0.0013669481
558394.7500236380,9.7950082443,0.0011725651,-0.0043374290,0.1745987210,-0.0006205525,0.0013886433
558394.7600236380,9.7949905903,0.0013260641,-0.0064724959,0.1746204343,-0.0005771500,0.0013018625
558394.7700236380,9.7945282549,0.0028493880,-0.0063154823,0.1745661511,-0.0005771500,0.0013344053
558394.7800236380,9.7954606095,0.0037671207,-0.0037300103,0.1745444379,-0.0005771500,0.0013777957
558394.7900236381,9.7951627934,0.0031554847,-0.0031177128,0.1745335812,-0.0005771500,0.0013777957
558394.8000236379,9.7953040750,0.0001068910,-0.0060180621,0.1745444379,-0.0006205525,0.0013018625
558394.8100236380,9.7945318531,0.0022392109,-0.0061632516,0.1745878644,-0.0005662994,0.0013452529
558394.8200236380,9.7951499847,0.0030037216,-0.0047953899,0.1745444379,-0.0005554487,0.0013561005
558394.8300236380,9.7960724765,0.0027020723,-0.0040405931,0.1745770077,-0.0005662994,0.0013561005
558394.8400236380,9.7956069085,0.0022431712,-0.0052570742,0.1745878644,-0.0005880006,0.0013561005
558394.8500236380,9.7949894291,0.0019361023,-0.0063197071,0.1745878644,-0.0005662994,0.0013452529
558394.8600236380,9.7957582536,0.0025488503,-0.0052582034,0.1745987210,-0.0005771500,0.0013344053
558394.8700236380,9.7959235685,0.0023962543,-0.0037344443,0.1745770077,-0.0005662994,0.0013561005
558394.8800236380,9.7946996910,0.0030014292,-0.0038765252,0.1745335812,-0.0005880006,0.0013452529
558394.8900236380,9.7951438348,0.0023941000,-0.0058632373,0.1744901547,-0.0005880006,0.0013452529
558394.9000236380,9.7953065406,0.0004117365,-0.0055603933,0.1744575848,-0.0005662994,0.0013561005
558394.9100236380,9.7951511172,0.0020886990,-0.0051008280,0.1744358716,-0.0005662994,0.0013344053
558394.9200236381,9.7960664700,0.0036173727,-0.0043451941,0.1744467282,-0.0005771500,0.0013561005
558394.9300236379,9.7957649410,0.0023959762,-0.0044957244,0.1745118680,-0.0005771500,0.0013561005
558394.9400236380,9.7949924037,0.0011734677,-0.0063200558,0.1745878644,-0.0006097018,0.0013344053
558394.9500236380,9.7943871668,0.0014756733,-0.0055522926,0.1745770077,-0.0005554487,0.0013344053
558394.9600236380,9.7960670649,0.0034648457,-0.0043452638,0.1745987210,-0.0005771500,0.0013561005
558394.9700236380,9.7954635554,0.0026995017,-0.0038830084,0.1745335812,-0.0005880006,0.0013669481
558394.9800236380,9.7953005341,0.0013270369,-0.0058649943,0.1745335812,-0.0005662994,0.0013344053
558394.9900236380,9.7949906476,0.0019360329,-0.0061671973,0.1745987210,-0.0005880006,0.0013344053
558395.0000236380,9.7956106500,0.0031579161,-0.0043415971,0.1746312909,-0.0005771500,0.0013344053
558395.0100236380,9.7957643748,0.0028534875,-0.0043430054,0.1749244199,-0.0005771500,0.0013561005
558395.0200236380,9.7948447715,0.0014775491,-0.0055560988,0.1746312909,-0.0005880006,0.0013561005
558395.0300236380,9.7949882393,0.0022411562,-0.0063195676,0.1746204343,-0.0005771500,0.0013344053
558395.0400236381,9.7948472659,0.0020873790,-0.0049457808,0.1745444379,-0.0005554487,0.0013452529
558395.0500236379,9.7953121816,0.0020888382,-0.0040345284,0.1745010113,-0.0005662994,0.0013561005
558395.0600236380,9.7957702953,0.0010232340,-0.0044963522,0.1746964307,-0.0005662994,0.0013127101
558395.0700236380,9.7951408029,0.0025467658,-0.0061681870,0.1746638608,-0.0006097018,0.0013344053
558395.0800236380,9.7946911328,0.0026969309,-0.0050967427,0.1745661511,-0.0005771500,0.0013669481
558395.0900236380,9.7954634980,0.0020895329,-0.0041883069,0.1745227246,-0.0005662994,0.0013452529
558395.1000236380,9.7951602130,0.0016307016,-0.0041859787,0.1745335812,-0.0005771500,0.0013452529
558395.1100236380,9.7945391641,0.0022387943,-0.0052481930,0.1745987210,-0.0005771500,0.0013452529
558395.1200236380,9.7946904805,0.0022394890,-0.0054019715,0.1745770077,-0.0005662994,0.0013127101
