t(s),acc_x,acc_y,acc_z,gyro_x,gyro_y,gyro_z
559012.0000242130,-0.0020342334,0.0008085975,9.7942125935,-0.0005404233,0.0000847381,0.0000326941
559012.0100242130,-0.0027969366,0.0005004868,9.7940662879,0.0004800999,0.0000521862,0.0000326941
559012.0200242130,0.0007315648,-0.0049760314,9.7938820859,-0.0006164197,0.0000738874,0.0000326941
559012.0300242130,0.0005481516,0.0035647118,9.7941922805,0.0004800999,0.0000738874,0.0000326941
559012.0400242130,-0.0018645606,-0.0048339954,9.7935987047,-0.0004752835,0.0000847381,0.0000326941
559012.0500242130,-0.0034196268,0.0030910821,9.7937675292,0.0001761142,0.0000738874,0.0000218465
559012.0600242130,-0.0004923700,-0.0049808253,9.7934347066,-0.0001278714,0.0000738874,0.0000218465
559012.0700242131,0.0010062939,0.0028040919,9.7938831060,-0.0001604413,0.0000738874,0.0000326941
559012.0800242129,-0.0017238667,-0.0011728629,9.7939041296,0.0002195408,0.0000738874,0.0000326941
559012.0900242130,-0.0026366391,-0.0011767535,9.7942167616,-0.0005078534,0.0000738874,0.0000326941
559012.1000242130,0.0013209110,0.0006698962,9.7940321017,0.0004800999,0.0000413356,0.0000326941
559012.1100242130,0.0010330364,-0.0043646038,9.7937273177,-0.0006164197,0.0000847381,0.0000218465
559012.1200242130,-0.0022011036,0.0038586495,9.7939102378,0.0004583866,0.0000738874,0.0000326941
559012.1300242130,-0.0018609337,-0.0051391881,9.7939035847,-0.0004861401,0.0000738874,0.0000326941
559012.1400242130,-0.0003671152,0.0029509913,9.7938945944,0.0001544010,0.0000630368,0.0000326941
559012.1500242130,0.0005778114,-0.0049765873,9.7937308449,-0.0000627316,0.0000955887,0.0000326941
559012.1600242130,-0.0020510057,0.0038594136,9.7936039496,-0.0002255810,0.0000738874,0.0000218465
559012.1700242130,-0.0023327878,-0.0011754335,9.7940617143,0.0002846805,0.0000738874,0.0000326941
559012.1800242130,0.0002662548,-0.0026900730,9.7940394482,-0.0005621366,0.0000738874,0.0000218465
559012.1900242131,0.0013196638,0.0003649812,9.7937269427,0.0004800999,0.0000738874,0.0000326941
559012.2000242129,-0.0017246336,-0.0028502424,9.7929883038,-0.0006381330,0.0000847381,0.0000218465
559012.2100242130,-0.0022035693,0.0035538040,9.7934525690,0.0003823902,0.0000738874,0.0000218465
559012.2200242130,0.0001316248,-0.0066565370,9.7943439228,-0.0003341473,0.0000738874,0.0000435417
559012.2300242130,0.0005463381,0.0037173081,9.7940398405,0.0000458347,0.0000738874,0.0000326941
559012.2400242130,-0.0015666011,-0.0026974374,9.7937496536,0.0000241214,0.0000738874,0.0000218465
559012.2500242130,-0.0024954650,0.0011119144,9.7939115197,-0.0003558606,0.0000847381,0.0000218465
559012.2600242130,-0.0009546767,-0.0031525170,9.7937443694,0.0003823902,0.0000521862,0.0000435417
559012.2700242130,0.0005616913,-0.0014683293,9.7934274298,-0.0005838498,0.0000955887,0.0000218465
559012.2800242130,-0.0003713083,0.0037136953,9.7937424334,0.0005018131,0.0000521862,0.0000543893
559012.2900242130,-0.0018609624,-0.0054441725,9.7937509354,-0.0005729932,0.0000847381,0.0000218465
559012.3000242130,-0.0011376957,0.0031008085,9.7929859493,0.0004041035,0.0000521862,0.0000326941
559012.3100242130,0.0005820618,-0.0051293225,9.7941883044,-0.0003015774,0.0000738874,0.0000109989
559012.3200242131,-0.0018941630,0.0043172725,9.7943654389,-0.0000518750,0.0000738874,0.0000326941
559012.3300242129,-0.0015599997,-0.0037652647,9.7940541848,0.0001218311,0.0000955887,0.0000326941
559012.3400242130,-0.0011203285,-0.0001025345,9.7935945235,-0.0004861401,0.0000630368,0.0000326941
559012.3500242130,-0.0000580244,0.0003596315,9.7931283223,0.0005235264,0.0000521862,0.0000543893
559012.3600242130,-0.0004994803,-0.0028455179,9.7935881929,-0.0006381330,0.0001064393,0.0000435417
559012.3700242130,-0.0015843339,0.0030983077,9.7943623433,0.0004692432,0.0000521862,0.0000218465
559012.3800242130,-0.0009446205,-0.0063554434,9.7934378850,-0.0004535703,0.0000738874,0.0000218465
559012.3900242130,0.0000869773,0.0044779974,9.7941965053,0.0001109745,0.0000847381,0.0000326941
559012.4000242130,-0.0004886571,-0.0043710649,9.7941975344,-0.0000410183,0.0000738874,0.0000326941
559012.4100242130,-0.0018889235,0.0017245926,9.7937542140,-0.0002690076,0.0000847381,0.0000326941
559012.4200242130,-0.0009606832,-0.0022372167,9.7934397684,0.0003281071,0.0000521862,0.0000326941
559012.4300242130,-0.0014212052,-0.0008664891,9.7937492219,-0.0005295667,0.0000955887,0.0000218465
559012.4400242131,0.0000958437,0.0015801249,9.7938901604,0.0004692432,0.0000738874,0.0000326941
559012.4500242129,-0.0009530067,-0.0048300354,9.7931335630,-0.0005947064,0.0000847381,0.0000326941
559012.4600242130,-0.0009742516,0.0024908400,9.7940519699,0.0003932468,0.0000738874,0.0000435417
559012.4700242130,-0.0004874386,-0.0043711343,9.7943500441,-0.0004644269,0.0000847381,0.0000435417
559012.4800242130,-0.0014372106,0.0038617064,9.7940564039,0.0001978275,0.0000738874,0.0000218465
559012.4900242130,-0.0009409076,-0.0057456830,9.7942007128,-0.0001604413,0.0000738874,0.0000218465
559012.5000242130,-0.0003694949,0.0035610990,9.7938948734,-0.0000953015,0.0000738874,0.0000218465
559012.5100242130,-0.0011089964,-0.0026955616,9.7937458474,0.0001869709,0.0000738874,0.0000218465
559012.5200242130,-0.0009647043,0.0003553937,9.7942035030,-0.0005295667,0.0000738874,0.0000326941
559012.5300242130,-0.0014296200,0.0003539345,9.7932922507,0.0004909565,0.0000521862,0.0000543893
559012.5400242130,0.0001178557,-0.0040633710,9.7938875794,-0.0006381330,0.0000955887,0.0000326941
559012.5500242130,-0.0009777638,0.0040159703,9.7943576869,0.0004583866,0.0000738874,0.0000326941
559012.5600242130,-0.0007926231,-0.0055923224,9.7937419845,-0.0004644269,0.0000847381,0.0000326941
559012.5700242131,-0.0008264760,0.0037116806,9.7940512592,0.0001761142,0.0000630368,0.0000218465
559012.5800242129,-0.0003409962,-0.0043701618,9.7935862266,-0.0000735882,0.0000738874,0.0000218465
559012.5900242130,-0.0005208400,0.0032554199,9.7938960027,-0.0002690076,0.0000738874,0.0000435417
559012.6000242130,-0.0014152847,-0.0026967427,9.7935958751,0.0002738239,0.0000738874,0.0000326941
559012.6100242130,-0.0008074387,-0.0011691807,9.7940490270,-0.0005621366,0.0000847381,0.0000435417
559012.6200242130,-0.0005215496,0.0021880092,9.7932854753,0.0005560963,0.0000304849,0.0000326941
559012.6300242130,-0.0003325240,-0.0049806167,9.7943484964,-0.0006272763,0.0000847381,0.0000326941
559012.6400242130,-0.0011351153,0.0046255916,9.7940542152,0.0003715336,0.0000738874,0.0000326941
559012.6500242130,-0.0010916578,-0.0062038890,9.7942017722,-0.0002907208,0.0000738874,0.0000218465
559012.6600242130,0.0000893283,0.0035629054,9.7940435770,-0.0001170148,0.0000847381,0.0000326941
559012.6700242130,-0.0006495209,-0.0022363133,9.7941997797,0.0001761142,0.0000738874,0.0000435417
559012.6800242130,-0.0017255941,-0.0001053134,9.7942096374,-0.0004752835,0.0000738874,0.0000326941
559012.6900242131,-0.0015809364,0.0003532398,9.7934460292,0.0004800999,0.0000521862,0.0000652368
559012.7000242129,-0.0015709089,-0.0031546710,9.7929868955,-0.0006272763,0.0000955887,0.0000109989
559012.7100242130,-0.0000668908,0.0032575040,9.7934346672,0.0004475300,0.0000413356,0.0000326941
559012.7200242130,-0.0014021392,-0.0054423661,9.7938996390,-0.0004969968,0.0000847381,0.0000326941
559012.7300242130,-0.0003640833,0.0027983255,9.7941995442,0.0001869709,0.0000738874,0.0000435417
559012.7400242130,-0.0007931320,-0.0045248423,9.7942000021,-0.0001387280,0.0000847381,0.0000326941
559012.7500242130,-0.0006733175,0.0038647634,9.7942025699,-0.0001387280,0.0000847381,0.0000326941
559012.7600242130,-0.0012616746,-0.0042211088,9.7929838697,0.0001869709,0.0000630368,0.0000109989
559012.7700242130,-0.0009677362,0.0005080595,9.7938985533,-0.0003884305,0.0000847381,0.0000326941
559012.7800242130,-0.0014319710,0.0012690266,9.7934451790,0.0003715336,0.0000738874,0.0000326941
559012.7900242130,-0.0014104107,-0.0026970204,9.7942059141,-0.0006381330,0.0000955887,0.0000326941
559012.8000242130,-0.0005203598,0.0018829554,9.7932853358,0.0004909565,0.0000521862,0.0000543893
559012.8100242130,0.0014948056,-0.0054304164,9.7937230232,-0.0005404233,0.0000630368,0.0000326941
559012.8200242131,-0.0017451976,0.0052330593,9.7943645887,0.0002955372,0.0000738874,0.0000326941
559012.8300242129,-0.0018548699,-0.0054445197,9.7945134842,-0.0002147244,0.0000738874,0.0000218465
559012.8400242130,0.0002550661,0.0014278761,9.7946513707,-0.0001387280,0.0000847381,0.0000326941
559012.8500242130,-0.0000436030,-0.0017760926,9.7938898945,0.0002629673,0.0000847381,0.0000326941
559012.8600242130,-0.0023418549,-0.0004124517,9.7932995143,-0.0005621366,0.0000955887,0.0000326941
559012.8700242130,-0.0021879581,0.0011130261,9.7942140017,0.0004909565,0.0000521862,0.0000218465
559012.8800242130,-0.0004875246,-0.0052860875,9.7938920963,-0.0006164197,0.0000738874,0.0000326941
559012.8900242130,0.0008484047,0.0041762089,9.7938850026,0.0004366733,0.0000304849,0.0000109989
559012.9000242130,-0.0009390655,-0.0055932949,9.7945058020,-0.0003667172,0.0001064393,0.0000218465
559012.9100242130,-0.0018996607,0.0041650928,9.7936028203,0.0000458347,0.0000847381,0.0000326941
559012.9200242130,0.0007340305,-0.0046711859,9.7943397547,0.0000024082,0.0000955887,0.0000326941
559012.9300242130,-0.0005069562,0.0018821915,9.7949629432,-0.0003558606,0.0000738874,0.0000326941
559012.9400242131,-0.0008184339,-0.0014735402,9.7925237899,0.0003823902,0.0000738874,0.0000326941
559012.9500242129,-0.0020265855,-0.0020892056,9.7937537388,-0.0006272763,0.0000738874,0.0000326941
559012.9600242130,-0.0008271856,0.0026442700,9.7934407318,0.0005018131,0.0000413356,0.0000326941
559012.9700242130,0.0007303176,-0.0052809464,9.7935769269,-0.0005512799,0.0001172899,0.0000326941
559012.9800242130,-0.0008257377,0.0050840757,9.7948144358,0.0003063938,0.0000738874,0.0000326941
559012.9900242130,-0.0026248841,-0.0057522138,9.7934521201,-0.0002798642,0.0000630368,0.0000435417
559013.0000242130,-0.0008211218,0.0023389384,9.7940506314,-0.0000627316,0.0000196343,0.0000326941
559013.0100242130,0.0014816601,-0.0026847930,9.7934192593,0.0001109745,0.0000847381,0.0000218465
559013.0200242130,-0.0018866012,0.0005045162,9.7934486364,-0.0003667172,0.0000847381,0.0000435417
559013.0300242130,-0.0031002217,0.0000416555,9.7940686161,0.0003823902,0.0000847381,0.0000435417
559013.0400242130,-0.0001913499,-0.0026919488,9.7940432545,-0.0005621366,0.0001064393,0.0000109989
559013.0500242140,0.0017629045,0.0031125499,9.7932668628,0.0004692432,0.0000847381,0.0000326941
559013.0600242140,-0.0014122814,-0.0031543929,9.7937481756,-0.0005838498,0.0001064393,0.0000218465
559013.0700242140,-0.0026551962,0.0023316434,9.7936083269,0.0003172504,0.0000196343,0.0000326941
559013.0800242140,-0.0001874149,-0.0061995124,9.7928215720,-0.0003341473,0.0000630368,0.0000326941
559013.0900242140,0.0011535032,0.0044824438,9.7940351144,0.0000566913,0.0000630368,0.0000218465
559013.1000242140,-0.0006441093,-0.0029990868,9.7945044504,0.0000349781,0.0000738874,0.0000326941
559013.1100242140,-0.0035564932,0.0012596478,9.7948355291,-0.0003884305,0.0001172899,0.0000109989
559013.1200242140,0.0001168379,-0.0019284108,9.7948036146,0.0004149601,0.0000847381,0.0000435417
559013.1300242140,0.0014847780,-0.0019225056,9.7941821569,-0.0006272763,0.0001064393,0.0000326941
559013.1400242141,-0.0002218340,0.0035620020,9.7932835657,0.0004800999,0.0000738874,0.0000543893
559013.1500242139,-0.0040085502,-0.0045372788,9.7927015480,-0.0005295667,0.0000304849,0.0000326941
559013.1600242140,-0.0012841955,0.0024898672,9.7934444683,0.0002955372,0.0000196343,0.0000218465
559013.1700242140,0.0022532870,-0.0046645860,9.7935645186,-0.0002472943,0.0000738874,0.0000435417
559013.1800242140,-0.0009819282,0.0050836587,9.7943581752,-0.0000193051,0.0000847381,0.0000218465
559013.1900242140,-0.0032373748,-0.0048396229,9.7936101233,0.0000241214,0.0000738874,0.0000435417
559013.2000242140,-0.0009659228,0.0003554632,9.7940509933,-0.0003232907,0.0000847381,0.0000326941
559013.2100242140,0.0007216233,-0.0005531675,9.7947991674,0.0003606769,0.0000955887,0.0000652368
559013.2200242140,-0.0006603727,-0.0010157508,9.7934377890,-0.0005621366,0.0001064393,0.0000218465
559013.2300242140,-0.0031104786,0.0011096911,9.7933065556,0.0004909565,0.0000738874,0.0000326941
559013.2400242140,-0.0015637986,-0.0052899784,9.7928334092,-0.0005838498,0.0000196343,0.0000218465
559013.2500242140,0.0009967179,0.0046345538,9.7935789236,0.0003715336,0.0000196343,0.0000218465
559013.2600242140,-0.0001860530,-0.0046746598,9.7937373281,-0.0003775739,0.0000955887,0.0000326941
559013.2700242141,-0.0038662937,0.0027835970,9.7949912739,0.0000458347,0.0000847381,0.0000326941
559013.2800242139,-0.0001836160,-0.0046747987,9.7940423476,-0.0000193051,0.0000955887,0.0000435417
559013.2900242140,0.0008586330,0.0028031889,9.7944944138,-0.0002472943,0.0001172899,0.0000218465
559013.3000242140,0.0001047675,-0.0007077789,9.7938891141,0.0002846805,0.0000738874,0.0000109989
559013.3100242140,-0.0023384001,-0.0025475508,9.7926884987,-0.0005295667,0.0000413356,0.0000326941
559013.3200242140,-0.0012795221,0.0003546987,9.7929859624,0.0004800999,0.0000087837,0.0000326941
559013.3300242140,0.0008745524,-0.0028399599,9.7937292840,-0.0006164197,0.0000630368,0.0000326941
559013.3400242140,-0.0008234441,0.0035590148,9.7943562089,0.0004149601,0.0000847381,0.0000326941
559013.3500242140,-0.0012423506,-0.0060521262,9.7945081303,-0.0004644269,0.0001389912,0.0000326941
559013.3600242140,-0.0012785831,0.0038619845,9.7948176839,0.0001869709,0.0001064393,0.0000109989
559013.3700242140,-0.0001896512,-0.0040644827,9.7935850974,-0.0001061581,0.0000630368,0.0000326941
559013.3800242140,0.0000872855,0.0012756266,9.7926699428,-0.0002472943,0.0000196343,0.0000326941
559013.3900242141,-0.0009564901,-0.0029999207,9.7935919294,0.0002955372,0.0000087837,0.0000435417
559013.4000242139,-0.0026389614,0.0000433230,9.7945223391,-0.0005621366,0.0001389912,0.0000218465
559013.4100242140,0.0011653729,0.0011269211,9.7938810700,0.0004800999,0.0001064393,0.0000543893
559013.4200242140,0.0005790299,-0.0049766567,9.7938833547,-0.0006489896,0.0001172899,0.0000435417
559013.4300242140,-0.0026556764,0.0037041079,9.7942189938,0.0004475300,0.0000087837,0.0000218465
559013.4400242140,-0.0017169284,-0.0051380767,9.7928347477,-0.0003992871,0.0000087837,0.0000435417
559013.4500242140,-0.0000680233,0.0041725266,9.7937401052,0.0000892612,0.0000413356,0.0000326941
559013.4600242140,0.0007413415,-0.0046716026,9.7952548133,-0.0000301617,0.0001281405,0.0000326941
559013.4700242140,-0.0023343718,0.0014170380,9.7951304685,-0.0003015774,0.0001498418,0.0000435417
559013.4800242140,-0.0020314308,-0.0017839434,9.7932963491,0.0003281071,0.0000738874,0.0000326941
559013.4900242140,-0.0002021731,-0.0011664019,9.7934339130,-0.0005621366,0.0000304849,0.0000218465
559013.5000242140,-0.0000585906,0.0008171428,9.7932810413,0.0005235264,0.0000304849,0.0000218465
559013.5100242140,-0.0017114308,-0.0049858970,9.7935973662,-0.0005947064,0.0000413356,0.0000218465
559013.5200242141,-0.0014389667,0.0046242716,9.7942092624,0.0003823902,0.0000955887,0.0000435417
559013.5300242139,-0.0001751725,-0.0055902380,9.7946519681,-0.0003992871,0.0001389912,0.0000326941
559013.5400242140,0.0003997811,0.0024963981,9.7941930610,0.0000566913,0.0000847381,0.0000435417
559013.5500242140,-0.0004923413,-0.0046758409,9.7935873558,0.0000132648,0.0000413356,0.0000218465
559013.5600242140,-0.0034148388,0.0021758512,9.7939196204,-0.0002798642,0.0000413356,0.0000218465
559013.5700242140,-0.0017268986,-0.0010201972,9.7935991799,0.0003715336,0.0000087837,0.0000326941
559013.5800242140,0.0011832777,-0.0028389176,9.7941842758,-0.0006381330,0.0000738874,0.0000109989
559013.5900242140,0.0008622025,0.0018880274,9.7944939953,0.0005343830,0.0001498418,0.0000543893
559013.6000242140,-0.0023196709,-0.0042260413,9.7942128290,-0.0005947064,0.0001498418,0.0000218465
559013.6100242140,-0.0014414323,0.0043194261,9.7937515936,0.0003281071,0.0000196343,0.0000435417
559013.6200242140,0.0021061637,-0.0054279847,9.7938704580,-0.0003232907,0.0000304849,0.0000218465
559013.6300242140,-0.0009785594,0.0020336064,9.7932892118,0.0000892612,0.0000304849,0.0000218465
559013.6400242141,-0.0024734244,-0.0042265971,9.7940615880,-0.0000518750,0.0000955887,0.0000326941
559013.6500242139,-0.0017338369,0.0029450166,9.7946685618,-0.0002690076,0.0001389912,0.0000326941
559013.6600242140,0.0014853443,-0.0023800169,9.7940294379,0.0002955372,0.0000738874,0.0000326941
559013.6700242140,-0.0001937582,-0.0023868255,9.7938908842,-0.0005512799,0.0000738874,0.0000435417
559013.6800242140,-0.0029584239,0.0024827808,9.7939159537,0.0005343830,-0.0000020669,0.0000218465
559013.6900242140,-0.0004966204,-0.0048280901,9.7929772470,-0.0006272763,0.0000738874,0.0000218465
559013.7000242140,0.0010082220,0.0038714331,9.7946461431,0.0004041035,0.0000738874,0.0000326941
559013.7100242140,-0.0000238561,-0.0055895432,9.7944981896,-0.0003992871,0.0001606924,0.0000218465
559013.7200242140,-0.0020466693,0.0046216316,9.7945193569,0.0000458347,0.0000738874,0.0000326941
559013.7300242140,-0.0014087119,-0.0040695544,9.7937477570,-0.0000193051,0.0000413356,0.0000435417
559013.7400242140,0.0005491407,0.0011247672,9.7931235961,-0.0002907208,0.0000738874,0.0000326941
559013.7500242140,-0.0000448215,-0.0017760231,9.7937373847,0.0003715336,0.0000413356,0.0000218465
559013.7600242140,-0.0026378576,-0.0011766840,9.7940642518,-0.0005729932,0.0001389912,0.0000435417
559013.7700242141,-0.0014331035,0.0021840492,9.7937506170,0.0005235264,0.0000196343,0.0000218465
559013.7800242139,0.0010342263,-0.0046696576,9.7937271782,-0.0006164197,0.0000738874,0.0000218465
559013.7900242140,-0.0008234441,0.0035590148,9.7943562089,0.0003823902,0.0000847381,0.0000326941
559013.8000242140,-0.0015631176,-0.0045275521,9.7932912872,-0.0003884305,0.0000738874,0.0000435417
559013.8100242140,-0.0006715041,0.0037121670,9.7943550100,0.0000566913,0.0000738874,0.0000435417
559013.8200242140,-0.0007919995,-0.0054398650,9.7938945640,0.0000241214,0.0000847381,0.0000326941
559013.8300242140,-0.0002111255,0.0008165175,9.7932823101,-0.0002907208,0.0000738874,0.0000109989
559013.8400242140,-0.0014308099,0.0006589884,9.7932923902,0.0003715336,0.0000738874,0.0000218465
559013.8500242140,-0.0017202685,-0.0017830401,9.7940563604,-0.0005947064,0.0000738874,0.0000435417
559013.8600242140,-0.0006638562,0.0008143639,9.7938961553,0.0004583866,0.0000847381,0.0000326941
559013.8700242140,-0.0004868724,-0.0048286456,9.7941973251,-0.0005729932,0.0000847381,0.0000218465
559013.8800242140,-0.0014456828,0.0044721613,9.7932941341,0.0003823902,0.0000413356,0.0000435417
559013.8900242141,-0.0012465437,-0.0052894222,9.7943559693,-0.0003775739,0.0001064393,0.0000326941
559013.9000242139,-0.0015879894,0.0030985160,9.7939048141,0.0000892612,0.0000738874,0.0000218465
559013.9100242140,-0.0001860530,-0.0046746598,9.7937373281,-0.0000193051,0.0000413356,0.0000109989
559013.9200242140,-0.0006649600,0.0020343709,9.7943542426,-0.0002472943,0.0000847381,0.0000326941
559013.9300242140,-0.0000484484,-0.0014708304,9.7934325047,0.0002303974,0.0000738874,0.0000435417
559013.9400242140,-0.0015737974,-0.0014770832,9.7934451921,-0.0005078534,0.0000955887,0.0000218465
559013.9500242140,-0.0009743950,0.0009659180,9.7932887235,0.0004909565,0.0000304849,0.0000326941
559013.9600242140,-0.0009467994,-0.0036104450,9.7945067089,-0.0006272763,0.0001064393,0.0000218465
559013.9700242140,-0.0002193397,0.0041718319,9.7938938837,0.0004692432,0.0000521862,0.0000109989
559013.9800242140,-0.0007902435,-0.0062024301,9.7937417055,-0.0004427136,0.0000738874,0.0000326941
559013.9900242140,-0.0009777351,0.0043209547,9.7945103362,0.0000892612,0.0000738874,0.0000218465
559014.0000242140,-0.0001884327,-0.0040645522,9.7937376071,-0.0000084485,0.0000738874,0.0000435417
559014.0100242140,-0.0003611087,0.0020356909,9.7941991954,-0.0003341473,0.0000955887,0.0000326941
559014.0200242141,-0.0004993656,-0.0016255804,9.7941987900,0.0004475300,0.0000738874,0.0000218465
559014.0300242139,-0.0020271804,-0.0019366786,9.7937538086,-0.0006381330,0.0000847381,0.0000218465
559014.0400242140,-0.0012811348,0.0026421858,9.7939020673,0.0004909565,0.0000521862,0.0000218465
559014.0500242140,0.0004312830,-0.0058925129,9.7940367146,-0.0005621366,0.0000738874,0.0000326941
559014.0600242140,-0.0011333306,0.0041680108,9.7940540059,0.0002846805,0.0000738874,0.0000218465
559014.0700242140,-0.0020110030,-0.0048349678,9.7943625222,-0.0001930112,0.0000738874,0.0000218465
559014.0800242140,-0.0015873372,0.0035559579,9.7942100429,-0.0001278714,0.0000738874,0.0000218465
559014.0900242140,0.0011808407,-0.0028387788,9.7938792563,0.0002086841,0.0000738874,0.0000218465
559014.1000242140,-0.0002044667,0.0003586590,9.7938921398,-0.0004644269,0.0000847381,0.0000326941
559014.1100242140,-0.0023441486,0.0011126091,9.7937577412,0.0004583866,0.0000521862,0.0000326941
559014.1200242140,0.0002642694,-0.0043673830,9.7929711126,-0.0006381330,0.0000847381,0.0000435417
559014.1300242150,0.0007036611,0.0028027025,9.7941906630,0.0004692432,0.0000738874,0.0000326941
559014.1400242150,-0.0021665985,-0.0049879117,9.7939061919,-0.0004969968,0.0000847381,0.0000435417
559014.1500242150,-0.0018991231,0.0034025970,9.7932974520,0.0001978275,0.0000413356,0.0000218465
559014.1600242150,0.0010360970,-0.0042122852,9.7941849168,-0.0001170148,0.0000847381,0.0000218465
559014.1700242150,-0.0012811062,0.0029471702,9.7940547166,-0.0001821545,0.0000738874,0.0000218465
559014.1800242150,-0.0004965344,-0.0039131369,9.7934351949,0.0002303974,0.0000738874,0.0000326941
559014.1900242150,-0.0011167303,-0.0007127117,9.7937467542,-0.0005295667,0.0000738874,0.0000435417
559014.2000242150,0.0004081673,0.0009709900,9.7944973829,0.0004475300,0.0000738874,0.0000218465
559014.2100242150,-0.0006508827,-0.0037611658,9.7932840236,-0.0006272763,0.0000847381,0.0000218465
559014.2200242151,-0.0003610227,0.0029506441,9.7946571432,0.0004583866,0.0000738874,0.0000218465
559014.2300242150,-0.0004875246,-0.0052860875,9.7938920963,-0.0004535703,0.0000738874,0.0000326941
559014.2400242150,-0.0008295080,0.0038643464,9.7937463094,0.0001761142,0.0000413356,0.0000218465
559014.2500242150,-0.0001837020,-0.0055897519,9.7935843998,-0.0001170148,0.0000847381,0.0000326941
559014.2600242150,-0.0009724382,0.0023382437,9.7942044099,-0.0002255810,0.0000847381,0.0000326941
559014.2700242150,-0.0009576513,-0.0023898825,9.7937447181,0.0002629673,0.0000630368,0.0000435417
559014.2800242150,-0.0002008686,-0.0002515181,9.7940443706,-0.0005404233,0.0000955887,0.0000326941
559014.2900242150,-0.0008200180,0.0011189313,9.7935925440,0.0005018131,0.0000738874,0.0000326941
559014.3000242150,-0.0007919422,-0.0048298962,9.7941998626,-0.0006381330,0.0000738874,0.0000326941
559014.3100242150,-0.0003712796,0.0040186797,9.7938950827,0.0004149601,0.0000521862,0.0000326941
559014.3200242150,-0.0007925658,-0.0049823537,9.7940472831,-0.0003992871,0.0001064393,0.0000218465
559014.3300242150,-0.0017471544,0.0038607336,9.7934489023,0.0000675479,0.0000630368,0.0000218465
559014.3400242151,-0.0003415625,-0.0039126505,9.7937389456,-0.0000193051,0.0000738874,0.0000326941
559014.3500242149,-0.0005173278,0.0017302896,9.7935902856,-0.0002690076,0.0000847381,0.0000326941
559014.3600242150,-0.0008020558,-0.0022369386,9.7942010484,0.0002955372,0.0000738874,0.0000326941
559014.3700242150,-0.0008067864,-0.0007117388,9.7943542558,-0.0005295667,0.0000738874,0.0000109989
559014.3800242150,-0.0011232170,0.0015750532,9.7940528201,0.0004583866,0.0000738874,0.0000326941
559014.3900242150,-0.0000328945,-0.0045215771,9.7938886389,-0.0006272763,0.0000738874,0.0000326941
559014.4000242150,-0.0000662959,0.0031049771,9.7934345974,0.0004149601,0.0000738874,0.0000326941
559014.4100242150,-0.0021768841,-0.0042248605,9.7929914822,-0.0004427136,0.0000847381,0.0000218465
559014.4200242150,-0.0006775966,0.0037125142,9.7935924612,0.0001761142,0.0000738874,0.0000109989
559014.4300242150,0.0002775009,-0.0061980532,9.7937328243,-0.0000953015,0.0000738874,0.0000435417
559014.4400242150,-0.0015843052,0.0034032921,9.7945149926,-0.0001604413,0.0000847381,0.0000326941
559014.4500242150,-0.0032528713,-0.0011789074,9.7934592877,0.0001869709,0.0000738874,0.0000326941
559014.4600242150,-0.0003570877,-0.0005569195,9.7934354608,-0.0004861401,0.0000738874,0.0000326941
559014.4700242151,0.0002590872,-0.0011647343,9.7938876361,0.0004366733,0.0000847381,0.0002496459
559014.4800242150,-0.0021725476,-0.0034626425,9.7939068895,-0.0006272763,0.0001064393,0.0009113492
559014.4900242150,-0.0034129967,0.0023282392,9.7942247097,0.0004692432,0.0000521862,0.0025818786
559014.5000242150,-0.0021606493,-0.0065131809,9.7939054944,-0.0005512799,0.0000738874,0.0042849508
559014.5100242150,-0.0008152013,0.0005086848,9.7938972845,0.0001869709,0.0000738874,0.0056734427
559014.5200242150,-0.0021630290,-0.0059030732,9.7939057734,-0.0002472943,0.0000738874,0.0067907449
559014.5300242150,-0.0006697480,0.0029496019,9.7942021514,-0.0001604413,0.0000738874,0.0076260096
559014.5400242150,-0.0011042657,-0.0042207613,9.7935926400,0.0000566913,0.0000738874,0.0082985604
559014.5500242150,-0.0018818705,-0.0010206836,9.7932954291,-0.0005078534,0.0000738874,0.0093399294
559014.5600242150,0.0002590872,-0.0011647343,9.7938876361,0.0003606769,0.0000738874,0.0099473946
559014.5700242150,-0.0012488947,-0.0043743301,9.7945088976,-0.0007141294,0.0001064393,0.0107609641
559014.5800242150,-0.0032634651,0.0027865147,9.7940711404,0.0003606769,0.0000413356,0.0115962288
559014.5900242151,-0.0007878065,-0.0062025690,9.7940467250,-0.0006164197,0.0000847381,0.0123447128
559014.6000242149,-0.0017381160,0.0027927675,9.7940584531,0.0000892612,0.0000630368,0.0135054053
559014.6100242150,-0.0017108072,-0.0048334395,9.7937499457,-0.0002472943,0.0000847381,0.0144166032
559014.6200242150,-0.0031061995,0.0012619402,9.7939166644,-0.0002798642,0.0000738874,0.0152084775
559014.6300242150,-0.0020224211,-0.0031568940,9.7937532505,0.0001001178,0.0000630368,0.0162715417
559014.6400242150,-0.0003517047,-0.0016246773,9.7935874822,-0.0006055631,0.0000738874,0.0170417208
559014.6500242150,-0.0008152586,-0.0001012840,9.7935919860,0.0003281071,0.0000738874,0.0178227476
559014.6600242150,-0.0023190760,-0.0043785682,9.7942127592,-0.0008226957,0.0000738874,0.0188966593
559014.6700242150,-0.0020420246,0.0021814787,9.7939082017,0.0002955372,0.0000738874,0.0195583625
559014.6800242150,-0.0010940948,-0.0062037501,9.7938967527,-0.0006598462,0.0000847381,0.0205671888
559014.6900242150,-0.0009748465,0.0026433669,9.7940520396,0.0000784046,0.0000630368,0.0215868625
559014.7000242150,-0.0014021105,-0.0051373817,9.7940522883,-0.0003341473,0.0000955887,0.0221400898
559014.7100242150,-0.0027968506,0.0014154400,9.7945242357,-0.0003558606,0.0000630368,0.0231923064
559014.7200242151,0.0008697070,-0.0025346977,9.7932718943,0.0000132648,0.0000196343,0.0240709615
559014.7300242150,-0.0009575939,-0.0017799137,9.7940500167,-0.0007684125,0.0001172899,0.0246784267
559014.7400242150,-0.0032570070,0.0001937654,9.7936124253,0.0003172504,0.0000738874,0.0259150524
559014.7500242150,-0.0017077466,-0.0046811209,9.7942075448,-0.0008552655,0.0000738874,0.0266418412
559014.7600242150,0.0008561386,0.0021933589,9.7938840957,0.0001869709,0.0000738874,0.0274988011
559014.7700242150,0.0004374329,-0.0052828913,9.7951045620,-0.0005947064,0.0001172899,0.0287896647
559014.7800242150,-0.0038827578,0.0026320422,9.7928560676,-0.0001712979,0.0000521862,0.0292344160
559014.7900242150,-0.0010983165,-0.0057460305,9.7935919425,-0.0002690076,0.0000738874,0.0299395096
559014.8000242150,-0.0011202138,0.0011174030,9.7942051205,-0.0005295667,0.0000847381,0.0309917262
559014.8100242150,-0.0000448215,-0.0017760231,9.7937373847,0.0000566913,0.0000738874,0.0316534294
559014.8200242150,-0.0037081537,-0.0024008597,9.7931575164,-0.0008552655,0.0000955887,0.0326839508
559014.8300242150,-0.0011135837,0.0003545601,9.7946623010,0.0002846805,0.0000630368,0.0337036246
559014.8400242151,0.0001232386,-0.0051311289,9.7940396009,-0.0008769788,0.0000847381,0.0342785471
559014.8500242149,-0.0023445714,0.0030950424,9.7946737066,0.0000458347,0.0000738874,0.0355260203
559014.8600242150,-0.0020104654,-0.0055974635,9.7940571539,-0.0006489896,0.0000955887,0.0363829802
559014.8700242150,-0.0015839110,0.0011158744,9.7934463780,-0.0002364377,0.0000738874,0.0371206166
559014.8800242150,-0.0017119397,-0.0039184169,9.7940553838,-0.0002472943,0.0000630368,0.0381077476
559014.8900242150,-0.0011256827,0.0012702077,9.7935951513,-0.0007141294,0.0000955887,0.0386826701
559014.9000242150,-0.0018777061,-0.0020883720,9.7932949408,0.0001109745,0.0000630368,0.0396481059
559014.9100242150,-0.0024764563,-0.0040739313,9.7937566382,-0.0009421186,0.0000955887,0.0407654080
559014.9200242150,-0.0008247773,0.0023391467,9.7935931021,0.0001652576,0.0000738874,0.0413728733
559014.9300242150,-0.0004893381,-0.0051334911,9.7937396563,-0.0009312620,0.0000847381,0.0423274615
559014.9400242150,-0.0026514833,0.0029414038,9.7943711548,-0.0000735882,0.0000630368,0.0433362877
559014.9500242150,-0.0010934425,-0.0057463082,9.7942019815,-0.0005295667,0.0000847381,0.0438461246
559014.9600242150,-0.0018864865,0.0017244538,9.7940592335,-0.0005187100,0.0000738874,0.0449200364
559014.9700242151,-0.0012621262,-0.0025436599,9.7937471859,-0.0000627316,0.0000630368,0.0458746246
559014.9800242150,-0.0012620975,-0.0022386755,9.7938998351,-0.0009746885,0.0001064393,0.0465037850
559014.9900242150,-0.0018860063,0.0003519893,9.7934485667,0.0001435444,0.0000521862,0.0476427824
559015.0000242150,-0.0018573356,-0.0057493652,9.7940558154,-0.0010289716,0.0000738874,0.0483587236
559015.0100242150,-0.0009874258,0.0049314790,9.7935955567,0.0000024082,0.0000738874,0.0489878840
559015.0200242150,-0.0010934425,-0.0057463082,9.7942019815,-0.0007141294,0.0000847381,0.0501919669
559015.0300242150,-0.0021928321,0.0011133039,9.7936039627,-0.0004318570,0.0000955887,0.0509838412
559015.0400242150,-0.0017161614,-0.0034606973,9.7937505735,-0.0003232907,0.0000738874,0.0520143626
559015.0500242150,-0.0001995640,0.0006633656,9.7946548281,-0.0008444089,0.0000955887,0.0529797984
559015.0600242150,-0.0005042110,-0.0013203182,9.7937414002,-0.0000301617,0.0000738874,0.0533377690
559015.0700242150,-0.0032331530,-0.0052973425,9.7939149336,-0.0010941114,0.0000847381,0.0543791380
559015.0800242150,-0.0026514833,0.0029414038,9.7943711548,0.0001001178,0.0000521862,0.0554855925
559015.0900242151,-0.0008028514,-0.0042193024,9.7931325733,-0.0009964017,0.0000955887,0.0561147530
559015.1000242149,-0.0008235014,0.0029490460,9.7940509104,-0.0002255810,0.0000847381,0.0571778171
559015.1100242150,-0.0010928763,-0.0062038195,9.7940492625,-0.0005947064,0.0000738874,0.0580130819
559015.1200242150,-0.0018810175,0.0015716491,9.7946692028,-0.0007466993,0.0000738874,0.0588266514
559015.1300242150,-0.0001973277,-0.0014716640,9.7938913028,-0.0001495846,0.0000847381,0.0598354776
559015.1400242150,0.0004139731,-0.0020792011,9.7937334390,-0.0011266813,0.0000847381,0.0603995524
559015.1500242150,-0.0011208947,0.0003549768,9.7937472425,0.0000349781,0.0000847381,0.0612456647
559015.1600242150,-0.0021581836,-0.0062083354,9.7943631632,-0.0010506849,0.0000955887,0.0624822904
559015.1700242150,-0.0011393945,0.0044733424,9.7934441064,-0.0001821545,0.0000630368,0.0631006033
559015.1800242150,-0.0021696017,-0.0045302615,9.7937538915,-0.0008444089,0.0000955887,0.0640768867
559015.1900242150,-0.0015814167,0.0017257043,9.7940566960,-0.0005187100,0.0000738874,0.0649121514
559015.2000242160,-0.0015582723,-0.0048328142,9.7937486770,-0.0005512799,0.0000847381,0.0655413118
559015.2100242160,-0.0012703403,0.0008116545,9.7943587595,-0.0007792691,0.0000738874,0.0667020043
559015.2200242160,-0.0009611921,-0.0011697366,9.7938977859,-0.0003341473,0.0000630368,0.0676348974
559015.2300242160,-0.0003468307,-0.0016249551,9.7941975212,-0.0009746885,0.0001064393,0.0682640578
559015.2400242160,-0.0011197622,-0.0005600459,9.7934418044,-0.0001170148,0.0000738874,0.0692945792
559015.2500242160,-0.0015666298,-0.0030024218,9.7935970043,-0.0012026777,0.0000955887,0.0700864535
559015.2600242160,-0.0012762895,0.0023369237,9.7943594571,-0.0001061581,0.0000738874,0.0709325658
559015.2700242160,-0.0003338573,-0.0062004848,9.7935853895,-0.0010615415,0.0000955887,0.0720498680
559015.2800242160,-0.0017405243,0.0030978907,9.7939060828,-0.0004101437,0.0000738874,0.0726573332
559015.2900242161,-0.0021629716,-0.0052931044,9.7942110719,-0.0006707028,0.0000955887,0.0736227690
559015.3000242159,-0.0006673684,0.0023394942,9.7942018724,-0.0008335523,0.0000630368,0.0746099001
559015.3100242160,-0.0008050877,-0.0020842728,9.7938960987,-0.0003341473,0.0001064393,0.0751739749
559015.3200242160,-0.0009527773,-0.0023901602,9.7943547572,-0.0011592512,0.0000955887,0.0762044963
559015.3300242160,-0.0026497846,0.0015688699,9.7939129977,-0.0001495846,0.0000413356,0.0771265418
559015.3400242160,-0.0018626898,-0.0043766229,9.7940564432,-0.0012569608,0.0000847381,0.0778858733
559015.3500242160,-0.0008241250,0.0027965886,9.7938983309,-0.0001930112,0.0000847381,0.0790465658
559015.3600242160,0.0002733365,-0.0051303648,9.7937333126,-0.0010615415,0.0000847381,0.0797191166
559015.3700242160,-0.0015837390,0.0029457808,9.7943622736,-0.0004969968,0.0000847381,0.0802398011
559015.3800242160,-0.0027780140,-0.0056003122,9.7934534586,-0.0007358426,0.0000847381,0.0814655792
559015.3900242160,-0.0000578810,0.0018845534,9.7938915687,-0.0009204053,0.0000738874,0.0822032156
559015.4000242160,-0.0003523570,-0.0020821192,9.7932822534,-0.0004210004,0.0000521862,0.0830384803
559015.4100242160,-0.0009582175,-0.0019323711,9.7938974372,-0.0012135343,0.0001172899,0.0841883252
559015.4200242159,-0.0021892340,0.0005031267,9.7937561934,-0.0001821545,0.0000521862,0.0848283332
559015.4300242160,-0.0020122215,-0.0048348984,9.7942100125,-0.0013003873,0.0000847381,0.0858263118
559015.4400242160,-0.0002175549,0.0037142512,9.7938936745,-0.0002581509,0.0000955887,0.0867266621
559015.4500242160,-0.0007955404,-0.0042197191,9.7940476318,-0.0011483945,0.0001064393,0.0874317557
559015.4600242160,-0.0038669746,0.0020211707,9.7945333959,-0.0006707028,0.0000630368,0.0885599054
559015.4700242160,-0.0023287954,-0.0040730283,9.7931453304,-0.0007032727,0.0000738874,0.0894168653
559015.4800242160,0.0005595410,0.0015816535,9.7946489030,-0.0010615415,0.0001172899,0.0901761969
559015.4900242160,-0.0008074674,-0.0014741651,9.7938963777,-0.0003775739,0.0000738874,0.0911633279
559015.5000242160,-0.0012645919,-0.0028485055,9.7932895171,-0.0013112440,0.0000955887,0.0917490979
559015.5100242160,-0.0012720964,0.0015742196,9.7945116181,-0.0002472943,0.0000847381,0.0926494482
559015.5200242160,-0.0018633134,-0.0045290804,9.7939038637,-0.0013546705,0.0000738874,0.0937992931
559015.5300242160,0.0003950217,0.0037166134,9.7941936190,-0.0003992871,0.0000847381,0.0944393012
559015.5400242161,-0.0018585254,-0.0054443113,9.7940559550,-0.0011483945,0.0001064393,0.0953504990
559015.5500242159,-0.0011243495,0.0024900759,9.7943582581,-0.0007466993,0.0000630368,0.0964352584
559015.5600242160,-0.0011079212,-0.0042205530,9.7931351108,-0.0006489896,0.0000738874,0.0970318760
559015.5700242160,-0.0006657557,0.0000520071,9.7932857675,-0.0012678175,0.0001064393,0.0980190070
559015.5800242160,-0.0002015208,-0.0007089600,9.7937391418,-0.0003124341,0.0000738874,0.0989085097
559015.5900242160,-0.0012616746,-0.0042211088,9.7929838697,-0.0014740934,0.0001064393,0.0995485177
559015.6000242160,-0.0017398721,0.0035553326,9.7942113116,-0.0003558606,0.0000847381,0.1006983627
559015.6100242160,0.0004241440,-0.0040621899,9.7940375517,-0.0012678175,0.0000738874,0.1014468466
559015.6200242160,-0.0005178941,0.0021878009,9.7937430046,-0.0006815595,0.0000955887,0.1020760071
559015.6300242160,-0.0018566833,-0.0052919233,9.7943610442,-0.0008986921,0.0000738874,0.1033885659
559015.6400242160,-0.0021933697,0.0018757996,9.7939093310,-0.0011049680,0.0000738874,0.1040394215
559015.6500242160,-0.0017172652,-0.0022406902,9.7942086609,-0.0005512799,0.0000847381,0.1050699429
559015.6600242160,-0.0009563468,-0.0014749987,9.7943551757,-0.0013980970,0.0000955887,0.1060896167
559015.6700242159,-0.0015802842,0.0008106817,9.7937512580,-0.0004535703,0.0000847381,0.1065343680
559015.6800242160,-0.0015599997,-0.0037652647,9.7940541848,-0.0014740934,0.0000738874,0.1076299750
559015.6900242160,-0.0014361354,0.0023367150,9.7934456673,-0.0003992871,0.0000847381,0.1085411728
559015.7000242160,-0.0001933067,-0.0040642744,9.7931275681,-0.0013438139,0.0001064393,0.1091920285
559015.7100242160,-0.0006727800,0.0031022677,9.7938972017,-0.0007575559,0.0000738874,0.1100923787
559015.7200242160,0.0001213965,-0.0052835169,9.7937345116,-0.0009855451,0.0001064393,0.1109710338
559015.7300242160,-0.0008133592,0.0006610728,9.7942023738,-0.0011266813,0.0001064393,0.1117303654
559015.7400242160,-0.0015719840,-0.0016296795,9.7935976321,-0.0006272763,0.0000738874,0.1130320766
559015.7500242160,-0.0003558692,-0.0005569889,9.7935879705,-0.0014958067,0.0000847381,0.1136829322
559015.7600242160,-0.0012685556,0.0003540737,9.7943585503,-0.0004210004,0.0000738874,0.1144205686
559015.7700242160,-0.0007950315,-0.0052871992,9.7935896143,-0.0015175199,0.0001064393,0.1155487183
559015.7800242160,-0.0003719032,0.0038662222,9.7937425032,-0.0005078534,0.0000738874,0.1162755071
559015.7900242161,-0.0003380217,-0.0051327964,9.7935858778,-0.0013763838,0.0001064393,0.1172626381
559015.8000242159,-0.0006691818,0.0024920906,9.7940494324,-0.0008986921,0.0000738874,0.1180870552
559015.8100242160,-0.0004922840,-0.0040658722,9.7938926544,-0.0009204053,0.0000847381,0.1188138440
559015.8200242160,-0.0017357937,0.0015726910,9.7937528755,-0.0013112440,0.0000847381,0.1198769081
559015.8300242160,-0.0006566885,-0.0007109747,9.7940479675,-0.0006381330,0.0000738874,0.1207989536
559015.8400242160,-0.0001967328,-0.0016241909,9.7938912330,-0.0015718031,0.0000955887,0.1215040472
559015.8500242160,-0.0018883859,0.0009620969,9.7934488457,-0.0004861401,0.0000955887,0.1226105017
559015.8600242160,-0.0000347366,-0.0046739651,9.7935835496,-0.0016043730,0.0001064393,0.1233372905
559015.8700242160,0.0002400785,0.0040211114,9.7940425175,-0.0006055631,0.0000738874,0.1240640793
559015.8800242160,-0.0003446231,-0.0040649691,9.7932813466,-0.0013980970,0.0001064393,0.1251162959
559015.8900242160,-0.0003623559,0.0017307760,9.7938940364,-0.0009855451,0.0000955887,0.1258105418
559015.9000242160,-0.0020170381,-0.0042246518,9.7939052720,-0.0009638318,0.0000630368,0.1268085205
559015.9100242160,-0.0011273814,0.0026427417,9.7940533084,-0.0013763838,0.0000847381,0.1277739563
559015.9200242159,0.0004038021,-0.0000962123,9.7934293263,-0.0007032727,0.0000955887,0.1281536221
559015.9300242160,-0.0018729468,-0.0033085873,9.7932943828,-0.0016912260,0.0000847381,0.1292275338
559015.9400242160,-0.0009628908,0.0002027974,9.7943559430,-0.0004861401,0.0000955887,0.1303122932
559015.9500242160,-0.0006424105,-0.0043716207,9.7940462934,-0.0016369429,0.0001064393,0.1311584055
559015.9600242160,-0.0011429353,0.0056934883,9.7935971742,-0.0007575559,0.0000738874,0.1322648600
559015.9700242160,-0.0010958222,-0.0051362006,9.7942022605,-0.0013438139,0.0001064393,0.1329808012
559015.9800242160,-0.0008193944,0.0012713888,9.7937451236,-0.0011918211,0.0000955887,0.1334797905
559015.9900242160,-0.0011095626,-0.0022380503,9.7938985664,-0.0009204053,0.0000738874,0.1347815018
559016.0000242160,-0.0002014061,0.0005109776,9.7943497389,-0.0016260862,0.0001064393,0.1354649001
559016.0100242160,-0.0000549638,0.0005119501,9.7935859213,-0.0005947064,0.0000847381,0.1364303360
559016.0200242160,-0.0018591777,-0.0059017532,9.7937507262,-0.0017889357,0.0001172899,0.1373523814
559016.0300242160,-0.0009819855,0.0044736899,9.7940528767,-0.0006055631,0.0000738874,0.1380357798
559016.0400242161,0.0007309412,-0.0051284889,9.7937295064,-0.0015718031,0.0001064393,0.1390554536
559016.0500242159,-0.0006715901,0.0027972138,9.7938970621,-0.0010723981,0.0000847381,0.1398907183
559016.0600242160,-0.0007967015,-0.0036096808,9.7942004206,-0.0011158246,0.0000955887,0.1405090312
559016.0700242160,-0.0023405217,0.0008074164,9.7940626212,-0.0015718031,0.0001064393,0.1415937905
559016.0800242160,-0.0002032482,0.0003585896,9.7940446496,-0.0007141294,0.0000630368,0.1425375312
559016.0900242160,-0.0003390968,-0.0036078050,9.7941966144,-0.0017889357,0.0001281405,0.1433619483
559016.1000242160,-0.0005118015,0.0021874537,9.7945055534,-0.0006381330,0.0001064393,0.1444358601
559016.1100242160,-0.0004983192,-0.0034555562,9.7934354041,-0.0017129393,0.0001281405,0.1450975633
559016.1200242160,-0.0006727513,0.0034072521,9.7940498509,-0.0008986921,0.0000738874,0.1459328280
559016.1300242160,0.0001279979,-0.0063513442,9.7940390428,-0.0014632368,0.0001064393,0.1470067397
559016.1400242160,0.0000892710,0.0029529366,9.7937382785,-0.0012352476,0.0001064393,0.1475599670
559016.1500242160,-0.0015660062,-0.0028499643,9.7937495838,-0.0011266813,0.0000738874,0.1484928601
559016.1600242160,-0.0008218027,0.0015765121,9.7935927533,-0.0015609465,0.0000955887,0.1495776194
559016.1700242159,0.0008661949,-0.0010095674,9.7935776113,-0.0008226957,0.0001064393,0.1503261034
559016.1800242160,-0.0001907837,-0.0031494601,9.7938905354,-0.0017997923,0.0001064393,0.1513891676
559016.1900242160,-0.0005184316,0.0029502966,9.7940483729,-0.0007792691,0.0000738874,0.1522244323
559016.2000242160,-0.0004928502,-0.0036083608,9.7940453734,-0.0018323622,0.0001064393,0.1528752879
559016.2100242160,0.0007053885,0.0017351529,9.7938851552,-0.0008552655,0.0000847381,0.1539383520
559016.2200242160,-0.0003415912,-0.0042176349,9.7935862964,-0.0016043730,0.0000847381,0.1545675125
559016.2300242160,-0.0008258524,0.0038641381,9.7942038387,-0.0012026777,0.0001064393,0.1551641301
559016.2400242160,-0.0009493511,-0.0048302437,9.7935910923,-0.0012786741,0.0000738874,0.1565309269
559016.2500242160,-0.0005113787,0.0002050204,9.7935895880,-0.0016152296,0.0000955887,0.1572902585
559016.2600242160,-0.0005029351,-0.0007104189,9.7941992085,-0.0009312620,0.0001172899,0.1582231515
559016.2700242170,0.0001036063,-0.0000977406,9.7940419028,-0.0018540754,0.0001172899,0.1593079109
559016.2800242170,0.0010153610,0.0020411101,9.7946453060,-0.0008226957,0.0000847381,0.1598394430
559016.2900242170,0.0007364101,-0.0052812936,9.7943394757,-0.0018540754,0.0001281405,0.1607614884
559016.3000242170,-0.0008295080,0.0038643464,9.7937463094,-0.0009095487,0.0000847381,0.1617486194
559016.3100242170,-0.0007985436,-0.0037620689,9.7938953314,-0.0017346525,0.0000955887,0.1624103226
559016.3200242170,0.0000851066,0.0040206250,9.7937387667,-0.0013221006,0.0000847381,0.1635493200
559016.3300242170,0.0005778114,-0.0049765873,9.7937308449,-0.0012678175,0.0000847381,0.1642761087
559016.3400242170,0.0000994132,0.0006649634,9.7938897419,-0.0017563658,0.0001172899,0.1650245927
559016.3500242170,-0.0006602294,0.0005091712,9.7942010353,-0.0008226957,0.0001064393,0.1662503708
559016.3600242171,0.0002662548,-0.0026900730,9.7940394482,-0.0020277815,0.0000738874,0.1668469884
559016.3700242169,0.0005487178,0.0031072004,9.7940395615,-0.0008552655,0.0000955887,0.1676605580
559016.3800242170,-0.0003332050,-0.0057430430,9.7938906183,-0.0018215056,0.0001172899,0.1688104029
559016.3900242170,-0.0002229665,0.0044770246,9.7935890037,-0.0012678175,0.0000738874,0.1694070205
559016.4000242170,-0.0004910368,-0.0037609572,9.7941978134,-0.0014523802,0.0001064393,0.1704266943
559016.4100242170,0.0002484073,0.0018857346,9.7940415409,-0.0016803694,0.0001281405,0.1712185687
559016.4200242170,0.0002602770,-0.0014697882,9.7938874965,-0.0010289716,0.0000955887,0.1720104430
559016.4300242170,-0.0008050017,-0.0011693196,9.7943540465,-0.0019952116,0.0000847381,0.1731168975
559016.4400242170,0.0005529109,0.0023444964,9.7941917225,-0.0008878354,0.0000847381,0.1739955526
559016.4500242170,0.0005814956,-0.0046718112,9.7943410235,-0.0020169249,0.0001498418,0.1747114938
559016.4600242170,-0.0002235901,0.0043245672,9.7934364242,-0.0010506849,0.0000738874,0.1755684537
559016.4700242170,0.0007237735,-0.0036031503,9.7935776942,-0.0017672224,0.0000847381,0.1756769296
559016.4800242170,0.0009984739,0.0038719886,9.7934260651,-0.0014089536,0.0001064393,0.1752864163
559016.4900242171,0.0008776416,-0.0023826569,9.7943395323,-0.0013329572,0.0001064393,0.1747223414
559016.5000242169,0.0007036037,0.0021927337,9.7938853645,-0.0018215056,0.0000847381,0.1743643708
559016.5100242170,0.0008644961,0.0003629665,9.7940357684,-0.0009855451,0.0001064393,0.1741582665
559016.5200242170,0.0008674134,-0.0010096369,9.7937301211,-0.0020712080,0.0001498418,0.1741040285
559016.5300242170,0.0013101738,0.0031103963,9.7938807081,-0.0009529752,0.0000738874,0.1741148761
559016.5400242170,0.0010385054,-0.0045174085,9.7943372870,-0.0019409285,0.0001498418,0.1741799617
559016.5500242170,0.0003908287,0.0044793174,9.7940414581,-0.0010506849,0.0000738874,0.1742450473
559016.5600242170,0.0005635047,-0.0016209257,9.7935798698,-0.0017997923,0.0001064393,0.1742992852
559016.5700242170,0.0006922716,0.0047857607,9.7937340406,-0.0012786741,0.0000955887,0.1742884376
559016.5800242170,0.0013380489,-0.0049733220,9.7934194817,-0.0015609465,0.0001064393,0.1743318280
559016.5900242170,0.0008556011,0.0029558546,9.7941894640,-0.0015935163,0.0000847381,0.1743535232
559016.6000242170,0.0011719169,-0.0005508750,9.7938803027,-0.0012135343,0.0001064393,0.1743643708
559016.6100242171,0.0022318987,0.0011313674,9.7937196791,-0.0018757887,0.0001064393,0.1743535232
559016.6200242169,0.0013124962,0.0018903198,9.7935751305,-0.0010181150,0.0000847381,0.1743209804
559016.6300242170,-0.0001918875,-0.0019294531,9.7943486228,-0.0019300718,0.0001281405,0.1743318280
559016.6400242170,0.0008543539,0.0026509397,9.7938843050,-0.0009855451,0.0000955887,0.1743426756
559016.6500242170,0.0017843789,-0.0017684504,9.7935696501,-0.0019843550,0.0001281405,0.1742992852
559016.6600242170,0.0011564778,0.0037198092,9.7940347656,-0.0010723981,0.0000955887,0.1743535232
559016.6700242170,0.0013368877,-0.0043632838,9.7935722705,-0.0018323622,0.0001281405,0.1743426756
559016.6800242170,-0.0003688140,0.0043235252,9.7943527515,-0.0012678175,0.0000955887,0.1743643708
559016.6900242170,0.0004151629,-0.0023842550,9.7937332995,-0.0014740934,0.0000847381,0.1743535232
559016.7000242170,0.0023773520,0.0035722845,9.7940245459,-0.0016477995,0.0001064393,0.1743643708
559016.7100242170,0.0008668184,-0.0008571100,9.7937301909,-0.0011375379,0.0000847381,0.1743643708
559016.7200242170,0.0002476977,0.0008183239,9.7934310136,-0.0019843550,0.0000955887,0.1743426756
559016.7300242170,0.0007036037,0.0021927337,9.7938853645,-0.0009312620,0.0000847381,0.1743860660
559016.7400242171,0.0013303723,-0.0023805033,9.7937256871,-0.0020169249,0.0001064393,0.1744511515
559016.7500242169,0.0011528509,0.0040250019,9.7937298856,-0.0009529752,0.0000847381,0.1744836943
559016.7600242170,-0.0003415625,-0.0039126505,9.7937389456,-0.0018866453,0.0001281405,0.1744836943
559016.7700242170,0.0008423982,0.0050915092,9.7935804016,-0.0012026777,0.0000738874,0.1744619991
559016.7800242170,0.0017909516,-0.0031412621,9.7937215321,-0.0015500898,0.0001064393,0.1744619991
559016.7900242170,0.0013120446,0.0035677687,9.7943384466,-0.0016477995,0.0001389912,0.1744077612
559016.8000242170,0.0007124701,-0.0007051389,9.7935790196,-0.0011266813,0.0000847381,0.1744294564
559016.8100242170,0.0000963526,0.0005126448,9.7934321428,-0.0020169249,0.0001281405,0.1743969136
559016.8200242170,0.0011575816,0.0024998022,9.7935766783,-0.0008769788,0.0000955887,0.1744945419
559016.8300242170,0.0013285302,-0.0025328913,9.7934205978,-0.0020060683,0.0000955887,0.1744728467
559016.8400242170,0.0011529656,0.0052449395,9.7943404827,-0.0010506849,0.0000955887,0.1745053895
559016.8500242170,0.0007309699,-0.0048235045,9.7938821557,-0.0017889357,0.0001281405,0.1744511515
559016.8600242171,0.0003932370,0.0041741942,9.7941938283,-0.0013980970,0.0000738874,0.1744619991
559016.8700242169,0.0010229229,-0.0017716462,9.7937285036,-0.0013655271,0.0001064393,0.1745053895
559016.8800242170,0.0010074550,0.0021940537,9.7937303172,-0.0018106489,0.0001064393,0.1745053895
559016.8900242170,0.0008603030,0.0011256705,9.7938836074,-0.0010181150,0.0000738874,0.1744945419
559016.9000242170,-0.0003468307,-0.0016249551,9.7941975212,-0.0020060683,0.0001064393,0.1744619991
559016.9100242170,0.0011546070,0.0032624368,9.7935770270,-0.0009529752,0.0000847381,0.1744945419
559016.9200242170,0.0016385028,-0.0022269342,9.7941807486,-0.0019734984,0.0001281405,0.1744619991
559016.9300242170,0.0003951078,0.0046315666,9.7946515668,-0.0010723981,0.0000955887,0.1744619991
559016.9400242170,0.0010324989,-0.0036021081,9.7940326860,-0.0017455092,0.0001064393,0.1744945419
559016.9500242170,0.0014567883,0.0049412751,9.7940327862,-0.0013980970,0.0000847381,0.1744619991
559016.9600242170,0.0010210521,-0.0022290186,9.7932707650,-0.0013112440,0.0001064393,0.1745053895
559016.9700242170,-0.0000566625,0.0018844840,9.7940440784,-0.0017889357,0.0001281405,0.1744294564
559016.9800242170,0.0016259808,0.0006711467,9.7940295643,-0.0010289716,0.0000847381,0.1744511515
559016.9900242171,0.0020852843,-0.0006995114,9.7935676010,-0.0020712080,0.0001281405,0.1744619991
559017.0000242169,0.0010033480,0.0038717109,9.7940361041,-0.0009312620,0.0000847381,0.1745379323
559017.0100242170,0.0002698243,-0.0036052345,9.7940390297,-0.0019626417,0.0001389912,0.1748525125
559017.0200242170,0.0008472722,0.0050912315,9.7941904406,-0.0011375379,0.0000738874,0.1745921703
559017.0300242170,0.0019422680,-0.0031405673,9.7935677536,-0.0016369429,0.0000955887,0.1745487799
559017.0400242170,0.0017642091,0.0040274336,9.7938773204,-0.0015066633,0.0001281405,0.1745379323
559017.0500242170,0.0007160109,-0.0019252848,9.7934259518,-0.0012678175,0.0000847381,0.1744945419
559017.0600242170,0.0005491694,0.0014297516,9.7932762454,-0.0018757887,0.0001281405,0.1744728467
559017.0700242170,0.0019299182,0.0015874199,9.7943324648,-0.0009638318,0.0001064393,0.1744294564
559017.0800242170,0.0011706698,-0.0008557900,9.7935751436,-0.0020603514,0.0001281405,0.1744619991
559017.0900242170,0.0002388313,0.0037161964,9.7937373585,-0.0008986921,0.0000847381,0.1744728467
559017.1000242170,-0.0001867053,-0.0051321017,9.7934320993,-0.0019083586,0.0001281405,0.1744836943
559017.1100242171,-0.0003790136,0.0060015296,9.7938959895,-0.0012135343,0.0000847381,0.1744836943
559017.1200242169,0.0011724258,-0.0016183551,9.7934222851,-0.0015392332,0.0000955887,0.1745053895
559017.1300242170,0.0013107974,0.0032628538,9.7940332876,-0.0016260862,0.0001281405,0.1745270847
559017.1400242170,0.0007172008,-0.0022303386,9.7934258123,-0.0011483945,0.0000847381,0.1745813227
559017.1500242170,0.0002489162,0.0008182545,9.7935835234,-0.0019083586,0.0001281405,0.1745270847
559017.1600242170,0.0016170284,0.0026540661,9.7938779613,-0.0009312620,0.0000955887,0.1745379323
559017.1700242170,0.0019393508,-0.0017679640,9.7938734009,-0.0020603514,0.0001281405,0.1745162371
559017.1800242170,0.0000892997,0.0032579210,9.7938909277,-0.0009746885,0.0001064393,0.1745270847
559017.1900242170,0.0007262105,-0.0036032892,9.7938827137,-0.0018975020,0.0000955887,0.1744728467
559017.2000242170,0.0006886735,0.0053959378,9.7935818098,-0.0012135343,0.0000955887,0.1744945419
559017.2100242170,0.0017952308,-0.0029890129,9.7943316409,-0.0015392332,0.0001064393,0.1744945419
559017.2200242170,0.0003949931,0.0034116290,9.7940409698,-0.0016152296,0.0001064393,0.1744619991
559017.2300242170,0.0010157265,-0.0005512920,9.7934240421,-0.0011483945,0.0001064393,0.1744945419
559017.2400242171,0.0004050493,0.0002087026,9.7937344854,-0.0019192152,0.0001389912,0.1745487799
559017.2500242169,0.0008501608,0.0034136437,9.7937321440,-0.0009529752,0.0000847381,0.1745270847
559017.2600242170,0.0023993926,-0.0017662270,9.7941746142,-0.0020603514,0.0001281405,0.1744836943
559017.2700242170,0.0005462808,0.0031073393,9.7937345420,-0.0010072584,0.0000955887,0.1744836943
559017.2800242170,0.0017934173,-0.0028364165,9.7941792009,-0.0018215056,0.0001281405,0.1744945419
559017.2900242170,0.0013048769,0.0050931073,9.7941866344,-0.0011918211,0.0001172899,0.1745053895
559017.3000242170,0.0007207989,-0.0028405157,9.7935780430,-0.0015935163,0.0000847381,0.1744945419
559017.3100242170,0.0013090700,0.0043304033,9.7943387954,-0.0015283766,0.0001064393,0.1745270847
559017.3200242170,0.0011748628,-0.0016184940,9.7937273046,-0.0012461042,0.0001064393,0.1745487799
559017.3300242170,0.0005570753,0.0012768080,9.7941912342,-0.0019192152,0.0001389912,0.1745596275
559017.3400242170,0.0016206266,0.0020438890,9.7940301921,-0.0009204053,0.0000847381,0.1745379323
559017.3500242180,0.0001143435,-0.0025382408,9.7941932965,-0.0020603514,0.0001281405,0.1745053895
559017.3600242180,0.0022212762,0.0047918051,9.7941788825,-0.0009421186,0.0000955887,0.1745379323
559017.3700242180,0.0020989960,-0.0039026461,9.7937186458,-0.0018866453,0.0001064393,0.1745162371
559017.3800242180,-0.0000643677,0.0041723183,9.7941976345,-0.0012786741,0.0000955887,0.1745162371
559017.3900242180,0.0011801884,-0.0032962206,9.7935740275,-0.0015283766,0.0000955887,0.1744728467
559017.4000242180,0.0008484334,0.0044811933,9.7940376518,-0.0016260862,0.0001389912,0.1745053895
559017.4100242180,0.0010211668,-0.0010090810,9.7938813621,-0.0011918211,0.0001064393,0.1745270847
559017.4200242180,0.0016319874,-0.0002441537,9.7943341652,-0.0018757887,0.0001064393,0.1745379323
559017.4300242180,0.0010098634,0.0018889304,9.7938826875,-0.0009746885,0.0000847381,0.1745921703
559017.4400242181,0.0010144793,-0.0008562069,9.7931188831,-0.0020169249,0.0001389912,0.1745487799
559017.4500242179,0.0014585443,0.0041787100,9.7938799276,-0.0009855451,0.0000847381,0.1745921703
559017.4600242180,0.0010294383,-0.0037544267,9.7935750870,-0.0019300718,0.0001389912,0.1745487799
559017.4700242180,0.0016117028,0.0043317927,9.7940312384,-0.0011375379,0.0000955887,0.1744836943
559017.4800242180,0.0013315622,-0.0026855571,9.7937255476,-0.0016586561,0.0001064393,0.1745053895
559017.4900242180,0.0016056103,0.0043321399,9.7932686896,-0.0013980970,0.0000847381,0.1745379323
559017.5000242180,0.0020936705,-0.0022249194,9.7938719229,-0.0013655271,0.0001281405,0.1745270847
559017.5100242180,-0.0000566051,0.0024944528,9.7943493770,-0.0017455092,0.0001281405,0.1745270847
559017.5200242180,0.0011713507,-0.0000933637,9.7940330217,-0.0011049680,0.0000955887,0.1745162371
559017.5300242180,0.0005605875,-0.0002483223,9.7938855171,-0.0020494948,0.0001389912,0.1745053895
559017.5400242180,0.0011582052,0.0026522597,9.7937292578,-0.0008878354,0.0001064393,0.1745270847
559017.5500242180,0.0010306568,-0.0037544961,9.7937275968,-0.0019843550,0.0001281405,0.1745053895
559017.5600242181,0.0014550895,0.0063138091,9.7944909432,-0.0010289716,0.0001064393,0.1745162371
559017.5700242179,0.0002661401,-0.0039100105,9.7934288512,-0.0017563658,0.0001281405,0.1745487799
559017.5800242180,0.0007007725,0.0044802902,9.7946489596,-0.0014415235,0.0000955887,0.1745162371
559017.5900242180,0.0020912621,-0.0019197962,9.7937195527,-0.0013003873,0.0001172899,0.1745487799
559017.6000242180,0.0013173415,0.0015850577,9.7940325203,-0.0018975020,0.0001389912,0.1745487799
559017.6100242180,0.0000910271,0.0021903714,9.7935854199,-0.0009204053,0.0000847381,0.1745379323
559017.6200242180,0.0005695399,-0.0022312417,9.7940371200,-0.0020820647,0.0001389912,0.1745379323
559017.6300242180,0.0013041960,0.0043306810,9.7937287564,-0.0009204053,0.0000955887,0.1745053895
559017.6400242180,0.0023980880,-0.0026811108,9.7935641567,-0.0018866453,0.0001389912,0.1745704751
559017.6500242180,0.0000803186,0.0049358559,9.7935866755,-0.0012786741,0.0001064393,0.1745487799
559017.6600242180,0.0011844102,-0.0037539403,9.7938788378,-0.0015392332,0.0000955887,0.1745379323
559017.6700242180,0.0013083891,0.0035679770,9.7938809173,-0.0015826597,0.0001281405,0.1745487799
559017.6800242180,0.0020853990,0.0005204262,9.7941781980,-0.0011375379,0.0001172899,0.1745704751
559017.6900242181,0.0005564804,0.0014293349,9.7941913040,-0.0019300718,0.0001389912,0.1745487799
559017.7000242179,-0.0002062228,0.0011212241,9.7940449984,-0.0009638318,0.0000955887,0.1745596275
559017.7100242180,0.0011778374,-0.0023811286,9.7937269558,-0.0020169249,0.0001281405,0.1745162371
559017.7200242180,0.0017606682,0.0052475795,9.7940303882,-0.0009638318,0.0000847381,0.1745813227
559017.7300242180,0.0014798466,-0.0025321966,9.7932668193,-0.0019083586,0.0001389912,0.1746138654
559017.7400242180,0.0002401072,0.0043260958,9.7941951668,-0.0012135343,0.0001064393,0.1746030179
559017.7500242180,0.0013314475,-0.0039054947,9.7931149505,-0.0015609465,0.0000955887,0.1746030179
559017.7600242180,0.0006952749,0.0043281105,9.7938863411,-0.0015392332,0.0001064393,0.1745921703
559017.7700242180,0.0028485538,-0.0008489119,9.7935611875,-0.0012135343,0.0001172899,0.1745921703
559017.7800242180,0.0014662496,0.0018908756,9.7937263715,-0.0018975020,0.0001389912,0.1745596275
559017.7900242180,-0.0000531217,0.0006643381,9.7938910106,-0.0009746885,0.0001064393,0.1745162371
559017.8000242180,0.0010217330,-0.0014665924,9.7937286431,-0.0020603514,0.0000955887,0.1745487799
559017.8100242181,0.0017613492,0.0060100058,9.7944882663,-0.0009312620,0.0001064393,0.1745813227
559017.8200242179,0.0017909516,-0.0031412621,9.7937215321,-0.0019409285,0.0001389912,0.1746030179
559017.8300242180,0.0020656234,0.0040288925,9.7934172536,-0.0010941114,0.0000955887,0.1745921703
559017.8400242180,0.0007262105,-0.0036032892,9.7938827137,-0.0016695127,0.0001281405,0.1745596275
559017.8500242180,0.0009962376,0.0060070183,9.7941895904,-0.0015066633,0.0000738874,0.1745379323
559017.8600242180,0.0020930756,-0.0020723925,9.7938719927,-0.0012352476,0.0001172899,0.1745487799
559017.8700242180,0.0001018216,0.0003598401,9.7940421121,-0.0019192152,0.0001281405,0.1745162371
559017.8800242180,0.0010056416,0.0023466500,9.7935778772,-0.0008986921,0.0001064393,0.1745813227
559017.8900242180,0.0010175113,-0.0010088727,9.7934238328,-0.0020712080,0.0001064393,0.1745596275
559017.9000242180,0.0020650571,0.0044864038,9.7935699727,-0.0009529752,0.0000955887,0.1746138654
559017.9100242180,0.0016284680,-0.0052762226,9.7914341779,-0.0018866453,0.0001389912,0.1745704751
559017.9200242180,0.0000651876,0.0060041693,9.7922145760,-0.0012461042,0.0001064393,0.1745487799
559017.9300242180,-0.0006311859,-0.0016273861,9.7967927246,-0.0015609465,0.0000955887,0.1745487799
559017.9400242181,0.0022742096,0.0040263236,9.8004314338,-0.0017020826,0.0000955887,0.1745487799
559017.9500242179,0.0024219779,-0.0013100350,9.7972250187,-0.0010941114,0.0001172899,0.1745053895
559017.9600242180,0.0009750356,0.0008234640,9.7890018869,-0.0018975020,0.0001606924,0.1745596275
559017.9700242180,-0.0007319492,0.0023431744,9.7861188552,-0.0008878354,0.0000847381,0.1745813227
559017.9800242180,0.0026787304,-0.0032884402,9.7902061255,-0.0020169249,0.0001389912,0.1746030179
559017.9900242180,0.0025202248,0.0044884185,9.7932611469,-0.0010181150,0.0000955887,0.1746030179
559018.0000242180,0.0004535028,-0.0028439189,9.7983083830,-0.0018432188,0.0001389912,0.1746247130
559018.0100242180,-0.0000274971,0.0075250635,9.8004520692,-0.0013763838,0.0001064393,0.1748959029
559018.0200242180,0.0013559897,-0.0020769771,9.7970810413,-0.0014089536,0.0000955887,0.1746681034
559018.0300242180,0.0028267927,0.0009822443,9.7917319075,-0.0017346525,0.0001389912,0.1748091221
559018.0400242180,0.0027852201,-0.0005403168,9.7857833294,-0.0009638318,0.0001606924,0.1747440366
559018.0500242180,0.0000743908,0.0002089103,9.7905343179,-0.0020277815,0.0001389912,0.1745704751
559018.0600242181,0.0005470478,0.0047847188,9.7946503679,-0.0009638318,0.0000738874,0.1745379323
559018.0700242179,0.0025809996,-0.0035971746,9.7969176841,-0.0020060683,0.0001281405,0.1744728467
559018.0800242180,0.0016361877,0.0055503415,9.7976920306,-0.0011266813,0.0001064393,0.1744945419
559018.0900242180,0.0005945336,-0.0020801729,9.7972398947,-0.0016477995,0.0001064393,0.1745379323
559018.1000242180,0.0008357394,0.0055493677,9.7929705718,-0.0014198103,0.0001281405,0.1745270847
559018.1100242180,0.0028385476,-0.0035932160,9.7909672660,-0.0013546705,0.0001281405,0.1745487799
559018.1200242180,0.0025186909,0.0011336596,9.7914294952,-0.0017997923,0.0001389912,0.1745379323
559018.1300242180,-0.0006729807,0.0009673769,9.7928286568,-0.0009638318,0.0001172899,0.1745813227
559018.1400242180,-0.0002008399,0.0000534663,9.7941970198,-0.0020494948,0.0001389912,0.1746138654
559018.1500242180,0.0019259831,0.0050949835,9.7955541473,-0.0009421186,0.0000630368,0.1746138654
559018.1600242180,0.0030287989,-0.0042047121,9.7953885012,-0.0019626417,0.0001498418,0.1746030179
559018.1700242180,-0.0008305544,0.0056943222,9.7945096953,-0.0011592512,0.0001498418,0.1746030179
559018.1800242180,-0.0006502018,-0.0029987396,9.7937419016,-0.0015609465,0.0000955887,0.1746247130
559018.1900242181,0.0034359719,0.0037296744,9.7929481662,-0.0016369429,0.0001281405,0.1745487799
559018.2000242179,0.0031506490,-0.0000850268,9.7935589988,-0.0011483945,0.0001172899,0.1745162371
559018.2100242180,-0.0003697816,0.0005112550,9.7923683807,-0.0019300718,0.0001389912,0.1745053895
559018.2200242180,-0.0009724955,0.0017282749,9.7938991113,-0.0009204053,0.0000955887,0.1745379323
559018.2300242180,0.0008729397,-0.0005524728,9.7946453889,-0.0020494948,0.0001498418,0.1745379323
559018.2400242180,0.0029864165,0.0050997771,9.7946302076,-0.0009855451,0.0000847381,0.1745162371
559018.2500242180,0.0021062211,-0.0048180159,9.7941757566,-0.0018540754,0.0001498418,0.1745270847
559018.2600242180,-0.0003735733,0.0055437406,9.7943533096,-0.0012895307,0.0001172899,0.1745270847
559018.2700242180,0.0010246789,-0.0025342113,9.7935756450,-0.0014415235,0.0000847381,0.1745487799
559018.2800242180,0.0023706358,0.0034201742,9.7931094176,-0.0016803694,0.0001389912,0.1745379323
559018.2900242180,0.0026906359,0.0002182207,9.7934104348,-0.0010723981,0.0001172899,0.1745162371
559018.3000242180,-0.0000549924,0.0002069657,9.7934332721,-0.0019734984,0.0001389912,0.1745921703
559018.3100242181,-0.0006746221,0.0029498796,9.7935921124,-0.0009204053,0.0000738874,0.1746030179
559018.3200242179,0.0025561206,-0.0025283058,9.7943255065,-0.0020277815,0.0001389912,0.1746030179
559018.3300242180,0.0035989644,0.0047971549,9.7947775029,-0.0010398282,0.0000955887,0.1746030179
559018.3400242180,0.0013291825,-0.0020754495,9.7937258266,-0.0017889357,0.0001498418,0.1745596275
559018.3500242180,-0.0002205582,0.0041719014,9.7937413740,-0.0013221006,0.0001064393,0.1745704751
559018.3600242180,0.0013291538,-0.0023804339,9.7935731773,-0.0013329572,0.0001064393,0.1745704751
559018.3700242180,0.0023719117,0.0040300736,9.7935672259,-0.0017672224,0.0001606924,0.1744945419
559018.3800242180,0.0013172268,0.0003651201,9.7934219232,-0.0010615415,0.0000955887,0.1745596275
559018.3900242180,0.0004122457,-0.0010116516,9.7940389468,-0.0019843550,0.0001498418,0.1745596275
559018.4000242180,0.0016146201,0.0029591893,9.7937255911,-0.0009529752,0.0001064393,0.1745813227
559018.4100242180,0.0030046868,-0.0014584638,9.7937121495,-0.0019409285,0.0001281405,0.1745487799
559018.4200242190,0.0014561933,0.0050938020,9.7940328559,-0.0010181150,0.0001172899,0.1745596275
559018.4300242190,0.0010337174,-0.0036021775,9.7941851958,-0.0018215056,0.0001281405,0.1745270847
559018.4400242190,0.0013066330,0.0043305422,9.7940337759,-0.0012461042,0.0000955887,0.1745270847
559018.4500242190,0.0028599719,-0.0025269858,9.7941704592,-0.0014849500,0.0001064393,0.1745162371
559018.4600242190,0.0022261216,0.0044865430,9.7946362722,-0.0017020826,0.0001498418,0.1745379323
559018.4700242190,0.0008650337,-0.0003995292,9.7937304001,-0.0010723981,0.0000955887,0.1745596275
559018.4800242190,0.0002549227,-0.0000970459,9.7938881243,-0.0019843550,0.0001389912,0.1745379323
559018.4900242190,0.0031400265,0.0035754109,9.7940182022,-0.0008878354,0.0000955887,0.1745813227
559018.5000242190,0.0017891956,-0.0023786969,9.7938743906,-0.0020060683,0.0001606924,0.1745704751
559018.5100242191,0.0014628808,0.0049409279,9.7947953350,-0.0010398282,0.0001064393,0.1745596275
559018.5200242189,0.0005712386,-0.0036037756,9.7935789630,-0.0018323622,0.0001281405,0.1745487799
559018.5300242190,0.0006941424,0.0052431331,9.7941917791,-0.0013546705,0.0001064393,0.1745053895
559018.5400242190,0.0020893914,-0.0023771686,9.7932618141,-0.0013763838,0.0001389912,0.1745704751
559018.5500242190,0.0011582052,0.0026522597,9.7937292578,-0.0017672224,0.0001389912,0.1745813227
559018.5600242190,0.0004039168,0.0011237252,9.7940399234,-0.0010181150,0.0000847381,0.1745921703
559018.5700242190,0.0013232333,-0.0005501803,9.7937265242,-0.0020060683,0.0001281405,0.1745596275
559018.5800242190,0.0019130885,0.0040282672,9.7934185224,-0.0009204053,0.0000955887,0.1746247130
559018.5900242190,0.0027014018,-0.0019172951,9.7937144777,-0.0019952116,0.0001606924,0.1745921703
559018.6000242190,0.0016086996,0.0047894429,9.7938789379,-0.0010615415,0.0001064393,0.1745596275
559018.6100242190,0.0016402302,-0.0032944837,9.7938752408,-0.0017563658,0.0001281405,0.1744945419
559018.6200242190,0.0022219285,0.0052492470,9.7944841113,-0.0013112440,0.0001389912,0.1745162371
559018.6300242190,0.0016336574,-0.0019216720,9.7937233589,-0.0013980970,0.0001064393,0.1745270847
559018.6400242191,0.0017725953,0.0025020256,9.7941816423,-0.0017563658,0.0001498418,0.1745379323
559018.6500242190,0.0005588027,0.0002092585,9.7938857264,-0.0010506849,0.0001064393,0.1745379323
559018.6600242190,0.0023916013,-0.0003933459,9.7938702225,-0.0020169249,0.0001498418,0.1745487799
559018.6700242190,0.0026812893,0.0044885577,9.7943274465,-0.0008878354,0.0001064393,0.1745704751
559018.6800242190,0.0007231786,-0.0034506234,9.7935777640,-0.0020060683,0.0001389912,0.1745596275
559018.6900242190,0.0003848221,0.0053946178,9.7937368571,-0.0010289716,0.0000847381,0.1745162371
559018.7000242190,0.0027013444,-0.0025272639,9.7934091792,-0.0017020826,0.0001281405,0.1745813227
559018.7100242190,0.0028301974,0.0047943757,9.7940212978,-0.0014523802,0.0001281405,0.1746030179
559018.7200242190,0.0013279640,-0.0020753800,9.7935733168,-0.0013546705,0.0001172899,0.1746138654
559018.7300242190,-0.0000506273,0.0012741680,9.7945013287,-0.0018106489,0.0001498418,0.1746030179
559018.7400242190,0.0007059260,0.0009726572,9.7935797869,-0.0010072584,0.0000955887,0.1746030179
559018.7500242190,0.0025418139,0.0008273559,9.7941745313,-0.0019626417,0.0001389912,0.1745704751
559018.7600242191,0.0023761335,0.0035723540,9.7938720362,-0.0009746885,0.0001389912,0.1745270847
559018.7700242189,0.0005676978,-0.0023836297,9.7937320308,-0.0019952116,0.0001064393,0.1744728467
559018.7800242190,0.0009985599,0.0047869418,9.7938840129,-0.0010072584,0.0001064393,0.1745379323
559018.7900242190,0.0028538793,-0.0025266386,9.7934079104,-0.0017889357,0.0001498418,0.1745813227
559018.8000242190,0.0019132605,0.0058581736,9.7943344180,-0.0013655271,0.0001064393,0.1746030179
559018.8100242190,0.0011820305,-0.0031438326,9.7938791168,-0.0014089536,0.0001172899,0.1746355606
559018.8200242190,0.0008531927,0.0032609779,9.7940370938,-0.0016803694,0.0001389912,0.1746247130
559018.8300242190,0.0022342784,0.0005212598,9.7937194000,-0.0010941114,0.0000738874,0.1746138654
559018.8400242190,0.0028401962,0.0009814805,9.7934095148,-0.0020060683,0.0001498418,0.1745704751
559018.8500242190,0.0013150192,0.0028051341,9.7943380978,-0.0008769788,0.0001389912,0.1745813227
559018.8600242190,0.0014840684,-0.0029899163,9.7935716296,-0.0020603514,0.0001389912,0.1745162371
559018.8700242190,0.0020621972,0.0064689760,9.7941809185,-0.0010072584,0.0001064393,0.1745379323
559018.8800242190,0.0024034996,-0.0034438842,9.7938688274,-0.0017455092,0.0001281405,0.1745921703
559018.8900242191,0.0020711210,0.0041810722,9.7941798722,-0.0014740934,0.0001281405,0.1745813227
559018.9000242190,0.0013274264,-0.0013128843,9.7938786851,-0.0011918211,0.0001172899,0.1745704751
559018.9100242190,0.0010115908,0.0008213808,9.7935771797,-0.0019192152,0.0001281405,0.1745379323
559018.9200242190,0.0028366267,0.0018966420,9.7934099334,-0.0009421186,0.0000955887,0.1745379323
559018.9300242190,0.0023921389,-0.0011558416,9.7935648542,-0.0020494948,0.0001715430,0.1745162371
559018.9400242190,0.0002388313,0.0037161964,9.7937373585,-0.0009421186,0.0001172899,0.1745162371
559018.9500242190,0.0019441388,-0.0026831949,9.7940254921,-0.0019083586,0.0001281405,0.1745487799
559018.9600242190,0.0023702416,0.0057075919,9.7941780323,-0.0010941114,0.0000955887,0.1746138654
559018.9700242190,0.0033168956,-0.0032875362,9.7937087750,-0.0016586561,0.0001389912,0.1746138654
559018.9800242190,0.0008532787,0.0041759311,9.7944950416,-0.0014740934,0.0001389912,0.1746247130
559018.9900242190,0.0004067767,-0.0008588469,9.7934289776,-0.0013112440,0.0000955887,0.1746355606
559019.0000242190,0.0017779782,0.0014342677,9.7943336638,-0.0018323622,0.0001498418,0.1746030179
559019.0100242191,0.0026895034,0.0011332433,9.7937158728,-0.0010072584,0.0001172899,0.1748850553
559019.0200242189,0.0022378479,-0.0003939017,9.7937189815,-0.0019843550,0.0001498418,0.1745704751
559019.0300242190,0.0009996924,0.0038719192,9.7935785748,-0.0008986921,0.0001064393,0.1745379323
559019.0400242190,0.0017867872,-0.0020735736,9.7937220204,-0.0019843550,0.0001498418,0.1745704751
559019.0500242190,0.0025215007,0.0050983178,9.7937189552,-0.0010615415,0.0001064393,0.1745813227
559019.0600242190,0.0031686112,-0.0034408967,9.7941675032,-0.0017455092,0.0001498418,0.1745596275
559019.0700242190,-0.0000739151,0.0063077646,9.7940461013,-0.0013655271,0.0001064393,0.1745813227
559019.0800242190,0.0016220673,-0.0020735045,9.7921981915,-0.0013980970,0.0001389912,0.1745704751
559019.0900242190,0.0025340800,0.0028102058,9.7941754382,-0.0017563658,0.0001389912,0.1745921703
559019.1000242190,0.0027083186,0.0003697060,9.7956981509,-0.0010398282,0.0001064393,0.1745813227
559019.1100242190,0.0016284179,0.0006710078,9.7943345838,-0.0020060683,0.0001606924,0.1745487799
559019.1200242190,-0.0000630919,0.0047822177,9.7946554428,-0.0009204053,0.0000847381,0.1745813227
559019.1300242190,0.0022503411,-0.0035969670,9.7937175166,-0.0020277815,0.0001389912,0.1746138654
559019.1400242191,0.0040468498,0.0051045706,9.7937062679,-0.0009855451,0.0001389912,0.1746030179
559019.1500242190,0.0008594501,-0.0014666621,9.7925098338,-0.0017563658,0.0001281405,0.1745921703
559019.1600242190,0.0000821320,0.0047832596,9.7937391155,-0.0014415235,0.0001281405,0.1745704751
559019.1700242190,0.0024053991,-0.0026815274,9.7944792152,-0.0012786741,0.0001172899,0.1745379323
559019.1800242190,0.0036048563,0.0026619169,9.7944715068,-0.0018432188,0.0001389912,0.1744945419
559019.1900242190,0.0017720577,0.0032645213,9.7944870106,-0.0009638318,0.0000955887,0.1745053895
559019.2000242190,0.0002536469,-0.0007069453,9.7934303160,-0.0020820647,0.0001606924,0.1744728467
559019.2100242190,0.0019191236,0.0034179512,9.7938757726,-0.0008769788,0.0000955887,0.1745379323
559019.2200242190,0.0027018533,-0.0035947440,9.7929511616,-0.0018975020,0.0001389912,0.1745487799
559019.2300242190,0.0023606370,0.0072330694,9.7937212006,-0.0011809644,0.0001172899,0.1745704751
559019.2400242190,0.0008727103,-0.0029923479,9.7934241948,-0.0015826597,0.0001064393,0.1745921703
559019.2500242190,0.0017714054,0.0028070794,9.7941817819,-0.0015826597,0.0001064393,0.1746030179
559019.2600242191,0.0034587221,-0.0005414264,9.7937087618,-0.0011809644,0.0001389912,0.1746138654
559019.2700242189,0.0019221843,0.0035702698,9.7943333717,-0.0019083586,0.0001281405,0.1746247130
559019.2800242190,0.0019233167,0.0026552472,9.7940279336,-0.0009529752,0.0001172899,0.1745813227
559019.2900242190,0.0019447051,-0.0031407062,9.7938727731,-0.0020169249,0.0001606924,0.1745704751
559019.3000242190,0.0023743487,0.0040299347,9.7938722454,-0.0008986921,0.0000847381,0.1745921703
559019.3100242190,0.0025470534,-0.0017653240,9.7935633065,-0.0018975020,0.0001498418,0.1745379323
559019.3200242190,0.0017565038,0.0063152679,9.7940308765,-0.0012243909,0.0001389912,0.1745053895
559019.3300242190,0.0016444233,-0.0040571877,9.7940274018,-0.0016260862,0.0001389912,0.1744619991
559019.3400242190,0.0017672123,0.0035697834,9.7940296209,-0.0014740934,0.0001281405,0.1744945419
559019.3500242190,0.0031542185,-0.0010001883,9.7935585803,-0.0012243909,0.0001498418,0.1745270847
559019.3600242190,0.0022253833,0.0031141479,9.7938730956,-0.0018757887,0.0001389912,0.1744619991
559019.3700242190,0.0011611798,0.0018896251,9.7937289090,-0.0009638318,0.0001064393,0.1745596275
559019.3800242190,0.0008703019,-0.0026872247,9.7932718245,-0.0020603514,0.0001389912,0.1745921703
559019.3900242191,0.0028271941,0.0052520259,9.7938689973,-0.0008986921,0.0001064393,0.1746138654
559019.4000242190,0.0040717216,-0.0025214975,9.7930927410,-0.0018975020,0.0001498418,0.1746681034
559019.4100242190,0.0013031209,0.0058556725,9.7943394930,-0.0012243909,0.0001172899,0.1746138654
559019.4200242190,0.0010288720,-0.0032969154,9.7937278060,-0.0014958067,0.0001389912,0.1746030179
559019.4300242190,0.0011504713,0.0046351096,9.7937301646,-0.0015718031,0.0001281405,0.1746030179
559019.4400242190,0.0033008042,0.0005257062,9.7935580091,-0.0011592512,0.0001064393,0.1745704751
559019.4500242190,0.0028445040,0.0014387141,9.7941722729,-0.0019409285,0.0001606924,0.1745921703
559019.4600242190,0.0005546957,0.0018869157,9.7941915132,-0.0009529752,0.0001064393,0.1745704751
559019.4700242190,0.0013261792,-0.0016177993,9.7935735261,-0.0020169249,0.0001281405,0.1746030179
559019.4800242190,0.0029803239,0.0051001242,9.7938676588,-0.0009421186,0.0001389912,0.1745813227
559019.4900242190,0.0045299499,-0.0023671642,9.7932415143,-0.0019083586,0.0001498418,0.1745704751
559019.5000242200,0.0002377275,0.0049362035,9.7941954458,-0.0011049680,0.0000955887,0.1745921703
559019.5100242200,0.0010343696,-0.0031447356,9.7944904246,-0.0016803694,0.0001281405,0.1745813227
559019.5200242200,0.0034428027,0.0051017223,9.7944738916,-0.0014849500,0.0001064393,0.1745270847
559019.5300242200,0.0039169504,-0.0003870931,9.7938575351,-0.0013003873,0.0001498418,0.1745813227
559019.5400242200,0.0006987297,0.0021930114,9.7932753254,-0.0018215056,0.0001606924,0.1745596275
559019.5500242200,0.0013203448,0.0011274075,9.7941848208,-0.0009529752,0.0001064393,0.1745813227
559019.5600242200,0.0026900410,0.0003707476,9.7934105045,-0.0020277815,0.0001281405,0.1745704751
559019.5700242200,0.0040546697,0.0040366739,9.7941633089,-0.0008986921,0.0001064393,0.1745813227
559019.5800242200,0.0028628891,-0.0038995891,9.7938648119,-0.0019734984,0.0001606924,0.1745704751
559019.5900242199,0.0002335057,0.0053939231,9.7938906356,-0.0011049680,0.0001064393,0.1745270847
559019.6000242200,0.0016402875,-0.0026845149,9.7941805394,-0.0017129393,0.0001389912,0.1745162371
559019.6100242200,0.0032908627,0.0049485701,9.7944750906,-0.0014415235,0.0001281405,0.1745487799
559019.6200242200,0.0034652661,-0.0022192225,9.7937079945,-0.0012895307,0.0001172899,0.1745704751
559019.6300242200,0.0008530780,0.0020410403,9.7934264967,-0.0017997923,0.0001498418,0.1745379323
559019.6400242200,0.0019268576,0.0014351013,9.7938748658,-0.0010181150,0.0000955887,0.1745813227
559019.6500242200,0.0028462028,0.0000661801,9.7937141158,-0.0019952116,0.0001498418,0.1745704751
559019.6600242200,0.0028337095,0.0032692454,9.7937155807,-0.0009204053,0.0001389912,0.1746030179
559019.6700242200,0.0017873535,-0.0025310850,9.7935693014,-0.0019626417,0.0001606924,0.1746247130
559019.6800242200,0.0016082194,0.0061619074,9.7944896048,-0.0010398282,0.0001389912,0.1745704751
559019.6900242200,0.0025518128,-0.0029855393,9.7935627484,-0.0017129393,0.0001606924,0.1746247130
559019.7000242200,0.0019173962,0.0044855008,9.7941812804,-0.0014089536,0.0001389912,0.1745813227
559019.7100242201,0.0020925093,-0.0016148812,9.7940247117,-0.0012895307,0.0001064393,0.1745813227
559019.7200242199,0.0017738138,0.0025019561,9.7943341521,-0.0018540754,0.0001606924,0.1745487799
559019.7300242200,0.0020751134,0.0012834774,9.7932634883,-0.0009529752,0.0001172899,0.1745053895
559019.7400242200,0.0028545603,-0.0017642123,9.7938657885,-0.0020277815,0.0001606924,0.1745270847
559019.7500242200,0.0020657094,0.0049438457,9.7938752015,-0.0008986921,0.0001606924,0.1745596275
559019.7600242200,0.0019417305,-0.0023780716,9.7938731219,-0.0018975020,0.0001498418,0.1744836943
559019.7700242200,0.0026795619,0.0055561072,9.7946329543,-0.0011266813,0.0000847381,0.1745053895
559019.7800242200,0.0030124207,-0.0034413137,9.7937112427,-0.0016803694,0.0001389912,0.1744945419
559019.7900242200,0.0014586017,0.0047886788,9.7941852262,-0.0014740934,0.0001389912,0.1745487799
559019.8000242200,0.0020876353,-0.0016146035,9.7934146727,-0.0012786741,0.0001064393,0.1745487799
559019.8100242200,0.0022307662,0.0020463901,9.7940251171,-0.0017997923,0.0001498418,0.1745596275
559019.8200242200,0.0031477317,0.0012875766,9.7938646461,-0.0010289716,0.0001172899,0.1746247130
559019.8300242200,0.0026900410,0.0003707476,9.7934105045,-0.0019952116,0.0001064393,0.1746030179
559019.8400242199,0.0014591393,0.0040261831,9.7938798579,-0.0008769788,0.0001498418,0.1745813227
559019.8500242200,0.0022461767,-0.0025292786,9.7937180049,-0.0019843550,0.0001498418,0.1745921703
559019.8600242200,0.0019161777,0.0044855702,9.7940287707,-0.0010506849,0.0001172899,0.1746030179
559019.8700242200,0.0030106933,-0.0023737641,9.7940167505,-0.0017129393,0.0001389912,0.1745921703
559019.8800242200,0.0019186721,0.0050954001,9.7946390887,-0.0014089536,0.0001498418,0.1745813227
559019.8900242200,0.0019411069,-0.0025305291,9.7937205424,-0.0013003873,0.0000847381,0.1745813227
559019.9000242200,0.0020794785,0.0023506798,9.7943315449,-0.0017563658,0.0001498418,0.1745596275
559019.9100242200,0.0029922509,0.0023545703,9.7940189129,-0.0010723981,0.0001064393,0.1745596275
559019.9200242200,0.0034545290,0.0002212776,9.7935566009,-0.0019734984,0.0001498418,0.1745053895
559019.9300242200,0.0022271107,0.0020465984,9.7935675878,-0.0009421186,0.0001172899,0.1745379323
559019.9400242200,0.0017891095,-0.0032936501,9.7934164428,-0.0020060683,0.0001389912,0.1745487799
559019.9500242200,0.0019108808,0.0064682812,9.7943346970,-0.0009638318,0.0001064393,0.1745813227
559019.9600242201,0.0036268395,-0.0032865634,9.7943162765,-0.0018106489,0.0001606924,0.1745813227
559019.9700242199,0.0019167727,0.0043330433,9.7940287009,-0.0013003873,0.0001389912,0.1746247130
559019.9800242200,0.0028532271,-0.0029840805,9.7931026817,-0.0013763838,0.0001389912,0.1745921703
559019.9900242200,0.0016111079,0.0044843196,9.7940313082,-0.0017346525,0.0001389912,0.1745596275
559020.0000242200,0.0031507350,0.0008299264,9.7940169466,-0.0010941114,0.0001172899,0.1745053895
559020.0100242200,0.0031506490,-0.0000850268,9.7935589988,-0.0019300718,0.0001606924,0.1747982745
559020.0200242200,0.0014632463,0.0023485258,9.7935740710,-0.0009204053,0.0001064393,0.1744945419
559020.0300242200,0.0022371956,-0.0008513436,9.7934137527,-0.0019952116,0.0001498418,0.1745053895
559020.0400242200,0.0025227765,0.0057082172,9.7941767635,-0.0009855451,0.0000955887,0.1745270847
559020.0500242200,0.0028622942,-0.0037470622,9.7938648817,-0.0018323622,0.0001498418,0.1745379323
559020.0600242200,0.0023738685,0.0054023992,9.7944829123,-0.0012895307,0.0001172899,0.1745704751
559020.0700242200,0.0025494044,-0.0026804160,9.7934103782,-0.0014523802,0.0001389912,0.1746247130
559020.0800242200,0.0023731589,0.0043349885,9.7938723850,-0.0017020826,0.0001498418,0.1745921703
559020.0900242199,0.0037608746,0.0008324275,9.7940118717,-0.0010181150,0.0001064393,0.1746247130
559020.1000242200,0.0026972947,-0.0002396379,9.7940202646,-0.0020169249,0.0001606924,0.1745921703
559020.1100242200,0.0016152723,0.0034166312,9.7940308199,-0.0008661222,0.0001064393,0.1746138654
559020.1200242200,0.0027055375,-0.0032899679,9.7935613402,-0.0019952116,0.0001498418,0.1745704751
559020.1300242200,0.0023684856,0.0064701571,9.7943308908,-0.0010941114,0.0001389912,0.1745596275
559020.1400242200,0.0030118545,-0.0029838024,9.7938639617,-0.0016260862,0.0001498418,0.1745379323
559020.1500242200,0.0025221243,0.0052507753,9.7938715348,-0.0015066633,0.0001389912,0.1745379323
559020.1600242200,0.0013273404,-0.0022278375,9.7934207373,-0.0012026777,0.0001498418,0.1745487799
559020.1700242200,0.0025400291,0.0012849366,9.7941747406,-0.0018866453,0.0001389912,0.1745162371
559020.1800242200,0.0026859913,0.0026583736,9.7940215899,-0.0009312620,0.0001172899,0.1744945419
559020.1900242200,0.0030052817,-0.0016109907,9.7937120798,-0.0020494948,0.0001606924,0.1745596275
559020.2000242200,0.0022212476,0.0044868207,9.7940262332,-0.0009421186,0.0001064393,0.1745813227
559020.2100242201,0.0025518128,-0.0029855393,9.7935627484,-0.0018866453,0.0001606924,0.1746138654
559020.2200242199,0.0026722509,0.0055565239,9.7937178958,-0.0011375379,0.0001172899,0.1746138654
559020.2300242200,0.0039270640,-0.0029800507,9.7938563493,-0.0016586561,0.0001389912,0.1746030179
559020.2400242200,0.0022224947,0.0047917357,9.7943313922,-0.0014740934,0.0001389912,0.1746572558
559020.2500242200,0.0020876640,-0.0013096191,9.7935673219,-0.0012678175,0.0001172899,0.1746247130
559020.2600242200,0.0032979157,0.0022032939,9.7940163057,-0.0018215056,0.0001715430,0.1745921703
559020.2700242200,0.0025309620,0.0020479184,9.7934125406,-0.0010289716,0.0001064393,0.1745813227
559020.2800242200,0.0036166399,-0.0016085590,9.7938595146,-0.0019300718,0.0001715430,0.1745704751
559020.2900242200,0.0014585157,0.0038737256,9.7937272784,-0.0008878354,0.0001389912,0.1745379323
559020.3000242200,0.0022420410,-0.0011566057,9.7938711425,-0.0019843550,0.0001498418,0.1745270847
559020.3100242200,0.0035929292,0.0054074709,9.7943202526,-0.0010506849,0.0001064393,0.1745162371
559020.3200242200,0.0030135819,-0.0040513519,9.7935584539,-0.0017889357,0.0001823937,0.1745270847
559020.3300242200,0.0014580354,0.0052461901,9.7943379452,-0.0012786741,0.0001064393,0.1745162371
559020.3400242199,0.0022402275,-0.0010040094,9.7937187025,-0.0014632368,0.0001498418,0.1745379323
559020.3500242200,0.0028350427,0.0044891135,9.7944786875,-0.0016369429,0.0001498418,0.1745813227
559020.3600242200,0.0042231527,-0.0013008652,9.7935495596,-0.0011049680,0.0001172899,0.1745921703
559020.3700242200,0.0026900697,0.0006757320,9.7935631538,-0.0019083586,0.0001498418,0.1746138654
559020.3800242200,0.0020680604,0.0040287536,9.7937222732,-0.0008769788,0.0001389912,0.1746789510
559020.3900242200,0.0017850025,-0.0016159929,9.7937222297,-0.0020712080,0.0001389912,0.1746464082
559020.4000242200,0.0031365430,0.0054055256,9.7944765686,-0.0010072584,0.0001498418,0.1746247130
559020.4100242200,0.0034888693,-0.0038979907,9.7958423638,-0.0017129393,0.0001498418,0.1746138654
559020.4200242200,0.0023775240,0.0054021909,9.7949404416,-0.0014089536,0.0001281405,0.1745921703
559020.4300242200,0.0023465452,-0.0000857923,9.7883800107,-0.0012352476,0.0001498418,0.1746138654
559020.4400242200,0.0031293968,0.0006786494,9.7912717012,-0.0018757887,0.0001498418,0.1745487799
559020.4500242200,0.0026956820,0.0020478493,9.7949363694,-0.0009312620,0.0001064393,0.1745596275
559020.4600242201,0.0028528329,-0.0006966628,9.7941712963,-0.0020712080,0.0001715430,0.1745162371
559020.4700242199,0.0030022284,0.0047938900,9.7964601852,-0.0009204053,0.0001389912,0.1745379323
559020.4800242200,0.0017916613,-0.0020738514,9.7943320594,-0.0018866453,0.0001389912,0.1745487799
559020.4900242200,0.0029888248,0.0047946538,9.7947825778,-0.0012135343,0.0001172899,0.1745921703
559020.5000242200,0.0033066387,-0.0022195006,9.7929467145,-0.0015066633,0.0001389912,0.1745379323
559020.5100242200,0.0031327441,0.0038808119,9.7932557930,-0.0015500898,0.0001498418,0.1745813227
559020.5200242200,0.0016136811,-0.0005480965,9.7918938696,-0.0012243909,0.0001172899,0.1746355606
559020.5300242200,0.0025388393,0.0015899904,9.7941748801,-0.0018215056,0.0001498418,0.1745921703
559020.5400242200,0.0036083971,0.0014417710,9.7943184390,-0.0010398282,0.0001172899,0.1745704751
559020.5500242200,0.0028571406,-0.0002394292,9.7949340544,-0.0019192152,0.0001606924,0.1745379323
559020.5600242200,0.0014639846,0.0037209209,9.7943372476,-0.0009421186,0.0001172899,0.1745379323
559020.5700242210,0.0022522406,-0.0028346101,9.7943279044,-0.0019626417,0.0001281405,0.1745053895
559020.5800242210,0.0023708079,0.0052500806,9.7940253133,-0.0010506849,0.0001172899,0.1744403040
559020.5900242210,0.0040820072,-0.0032845487,9.7940074508,-0.0017346525,0.0001389912,0.1745053895
559020.6000242210,0.0016051301,0.0057046044,9.7938793565,-0.0013763838,0.0001606924,0.1746030179
559020.6100242210,0.0025566868,-0.0029858171,9.7941727874,-0.0013221006,0.0001389912,0.1745921703
559020.6200242210,0.0017646893,0.0026549691,9.7932666536,-0.0017889357,0.0001498418,0.1745921703
559020.6300242210,0.0032978870,0.0018983095,9.7938636564,-0.0009529752,0.0001172899,0.1745379323
559020.6400242210,0.0026966711,-0.0003920953,9.7938676850,-0.0020603514,0.0001498418,0.1745487799
559020.6500242210,0.0026794472,0.0043361697,9.7940223572,-0.0008769788,0.0001064393,0.1746030179
559020.6600242211,0.0028654121,-0.0029847748,9.7946277792,-0.0019300718,0.0001606924,0.1745596275
559020.6700242209,0.0031304792,0.0057108572,9.7938666691,-0.0011266813,0.0001172899,0.1745704751
559020.6800242210,0.0028549831,-0.0037466456,9.7929498231,-0.0016586561,0.0001281405,0.1745487799
559020.6900242210,0.0014592253,0.0049411362,9.7943378057,-0.0013655271,0.0001606924,0.1745704751
559020.7000242210,0.0025457776,-0.0023752233,9.7931054982,-0.0013655271,0.0001172899,0.1745921703
559020.7100242210,0.0034445014,0.0037291884,9.7940157345,-0.0017237959,0.0001606924,0.1745813227
559020.7200242210,0.0037620931,0.0008323581,9.7941643814,-0.0010506849,0.0001172899,0.1745596275
559020.7300242210,0.0033080292,-0.0003896637,9.7940151198,-0.0019952116,0.0001715430,0.1745921703
559020.7400242210,0.0031425495,0.0044902252,9.7947811696,-0.0008444089,0.0001172899,0.1745596275
559020.7500242210,0.0020936705,-0.0022249194,9.7938719229,-0.0019734984,0.0001606924,0.1745487799
559020.7600242210,0.0034325744,0.0064747423,9.7938644804,-0.0010289716,0.0001172899,0.1745270847
559020.7700242210,0.0030124207,-0.0034413137,9.7937112427,-0.0017889357,0.0001389912,0.1745921703
559020.7800242211,0.0020712070,0.0050960254,9.7946378200,-0.0013221006,0.0001498418,0.1746138654
559020.7900242209,0.0016300019,-0.0019214637,9.7932658296,-0.0013872404,0.0001064393,0.1746355606
559020.8000242210,0.0031399978,0.0032704265,9.7938655530,-0.0017237959,0.0001498418,0.1746138654
559020.8100242210,0.0037578140,0.0006801089,9.7935542727,-0.0010615415,0.0001389912,0.1745596275
559020.8200242210,0.0019352151,-0.0003952912,9.7940265385,-0.0019409285,0.0001715430,0.1745270847
559020.8300242210,0.0014626514,0.0025010528,9.7935741408,-0.0008769788,0.0001064393,0.1745596275
559020.8400242210,0.0034658611,-0.0023717494,9.7937079248,-0.0019952116,0.0001389912,0.1744728467
559020.8500242210,0.0026741790,0.0066238651,9.7944809329,-0.0009746885,0.0001172899,0.1744945419
559020.8600242210,0.0022461194,-0.0031392474,9.7934127064,-0.0018540754,0.0001606924,0.1745162371
559020.8700242210,0.0022217851,0.0037243250,9.7937208649,-0.0012352476,0.0001172899,0.1745704751
559020.8800242210,0.0033156771,-0.0032874668,9.7935562652,-0.0014632368,0.0001498418,0.1745487799
559020.8900242210,0.0019162638,0.0054005234,9.7944867185,-0.0015609465,0.0001498418,0.1745596275
559020.9000242210,0.0037614122,0.0000699318,9.7937065034,-0.0011918211,0.0001498418,0.1745270847
559020.9100242211,0.0019279900,0.0005200787,9.7935694277,-0.0018866453,0.0001389912,0.1745813227
559020.9200242209,0.0022366867,0.0002161365,9.7938717703,-0.0009421186,0.0001172899,0.1746247130
559020.9300242210,0.0036149698,0.0000689593,9.7944703209,-0.0020169249,0.0001715430,0.1746247130
559020.9400242210,0.0032872645,0.0055587472,9.7943228599,-0.0009204053,0.0001172899,0.1746789510
559020.9500242210,0.0039324469,-0.0040478086,9.7940083707,-0.0019409285,0.0001498418,0.1746138654
559020.9600242210,0.0017636428,0.0044849449,9.7940300394,-0.0010398282,0.0001498418,0.1745921703
559020.9700242210,0.0020936131,-0.0028348882,9.7935666244,-0.0016369429,0.0001606924,0.1745487799
559020.9800242210,0.0029816285,0.0060150080,9.7944781164,-0.0015066633,0.0001498418,0.1744945419
559020.9900242210,0.0034592883,-0.0009989377,9.7935560428,-0.0011809644,0.0001172899,0.1745270847
559021.0000242210,0.0025441362,-0.0003927206,9.7938689538,-0.0019192152,0.0001606924,0.1745379323
559021.0100242210,0.0017677499,0.0028072877,9.7937242526,-0.0008552655,0.0001172899,0.1748199697
559021.0200242210,0.0036136940,-0.0005409400,9.7940125126,-0.0020277815,0.0001606924,0.1745162371
559021.0300242211,0.0037472489,0.0049505154,9.7943187746,-0.0009312620,0.0001172899,0.1745379323
559021.0400242209,0.0025577906,-0.0042058241,9.7937147001,-0.0018323622,0.0001498418,0.1745487799
559021.0500242210,0.0020608927,0.0055540922,9.7935704610,-0.0012786741,0.0001172899,0.1745704751
559021.0600242210,0.0033078572,-0.0022195700,9.7930992242,-0.0014198103,0.0001498418,0.1745704751
559021.0700242210,0.0039045145,0.0034259409,9.7941642986,-0.0017020826,0.0001498418,0.1746138654
559021.0800242210,0.0022366580,-0.0000888479,9.7937191210,-0.0010181150,0.0001389912,0.1745270847
559021.0900242210,0.0020805536,0.0008256883,9.7937208083,-0.0019952116,0.0001606924,0.1745704751
559021.1000242210,0.0029820800,0.0043375591,9.7937148003,-0.0008444089,0.0001498418,0.1746030179
559021.1100242210,0.0034699968,-0.0037444222,9.7935547872,-0.0020169249,0.0001498418,0.1745270847
559021.1200242210,0.0029773493,0.0058627588,9.7938680076,-0.0010289716,0.0001389912,0.1745596275
559021.1300242210,0.0031577880,-0.0019153498,9.7935581617,-0.0016586561,0.0001606924,0.1745162371
559021.1400242210,0.0032908627,0.0049485701,9.7944750906,-0.0014632368,0.0001389912,0.1745487799
559021.1500242210,0.0039216524,-0.0022172772,9.7935516785,-0.0012243909,0.0001389912,0.1745487799
559021.1600242211,0.0026925927,0.0015905463,9.7943261211,-0.0018106489,0.0001606924,0.1745270847
559021.1700242209,0.0034481283,0.0034239957,9.7943206145,-0.0009421186,0.0001172899,0.1745704751
559021.1800242210,0.0026954239,-0.0006970103,9.7935625260,-0.0020603514,0.0001498418,0.1745921703
559021.1900242210,0.0029832125,0.0034225365,9.7934093622,-0.0009312620,0.0001172899,0.1745921703
559021.2000242210,0.0045414254,-0.0034352692,9.7941560846,-0.0018866453,0.0001715430,0.1746030179
559021.2100242210,0.0026693623,0.0072341117,9.7941761924,-0.0011158246,0.0001389912,0.1745704751
559021.2200242210,0.0028574488,-0.0034418001,9.7934074919,-0.0016369429,0.0001389912,0.1745813227
559021.2300242210,0.0029831551,0.0028125677,9.7931040637,-0.0014198103,0.0001498418,0.1745921703
559021.2400242210,0.0023939810,-0.0010034536,9.7938699435,-0.0012135343,0.0001498418,0.1745704751
559021.2500242210,0.0037567676,0.0025100847,9.7943176585,-0.0018975020,0.0001606924,0.1746030179
559021.2600242210,0.0029898139,0.0023547092,9.7937138934,-0.0009204053,0.0001389912,0.1745813227
559021.2700242210,0.0027019967,-0.0020698220,9.7937144080,-0.0020494948,0.0001064393,0.1745596275
559021.2800242211,0.0029809475,0.0052525817,9.7940202383,-0.0008769788,0.0001498418,0.1745813227
559021.2900242209,0.0039313144,-0.0031327859,9.7943138088,-0.0018540754,0.0001715430,0.1745487799
559021.3000242210,0.0025245326,0.0049456521,9.7940239050,-0.0012352476,0.0001172899,0.1745487799
559021.3100242210,0.0024011486,-0.0025287922,9.7940217557,-0.0014198103,0.0001389912,0.1745270847
559021.3200242210,0.0026734694,0.0055564544,9.7938704055,-0.0017237959,0.0001498418,0.1744728467
559021.3300242210,0.0039139471,0.0000705571,9.7937052347,-0.0010723981,0.0001172899,0.1745379323
559021.3400242210,0.0028528902,-0.0000866940,9.7944765948,-0.0019300718,0.0001823937,0.1745379323
559021.3500242210,0.0019257824,0.0029600927,9.7944856024,-0.0008661222,0.0001172899,0.1745379323
559021.3600242210,0.0025458349,-0.0017652545,9.7934107967,-0.0019952116,0.0001498418,0.1745704751
559021.3700242210,0.0037382678,0.0066284504,9.7940145224,-0.0009638318,0.0001498418,0.1746138654
559021.3800242210,0.0031685252,-0.0043558499,9.7937095554,-0.0018215056,0.0001606924,0.1745813227
559021.3900242210,0.0019168300,0.0049430121,9.7943339995,-0.0013003873,0.0001498418,0.1745921703
559021.4000242210,0.0034628291,-0.0022190836,9.7934029750,-0.0014089536,0.0001389912,0.1745813227
559021.4100242211,0.0035886215,0.0049502373,9.7935574946,-0.0016586561,0.0001498418,0.1746030179
559021.4200242209,0.0036040606,0.0006795531,9.7934030316,-0.0010506849,0.0001606924,0.1746138654
559021.4300242210,0.0025410756,-0.0005450392,9.7934113547,-0.0019409285,0.0001823937,0.1746030179
559021.4400242210,0.0037580434,0.0031199841,9.7947754668,-0.0008552655,0.0000955887,0.1745813227
559021.4500242210,0.0037643868,-0.0006927028,9.7937061546,-0.0020169249,0.0001715430,0.1745596275
559021.4600242210,0.0028259469,0.0049471109,9.7935638383,-0.0010072584,0.0001172899,0.1745704751
559021.4700242210,0.0030213732,-0.0054242330,9.7938628456,-0.0017237959,0.0001606924,0.1745487799
559021.4800242210,0.0026735841,0.0067763920,9.7944810026,-0.0013329572,0.0001606924,0.1745813227
559021.4900242210,0.0037662289,-0.0005403147,9.7940112439,-0.0013112440,0.0001281405,0.1745053895
559021.5000242210,0.0037567389,0.0022051003,9.7941650093,-0.0018757887,0.0001606924,0.1745487799
559021.5100242210,0.0030012320,0.0006766353,9.7943231651,-0.0008769788,0.0001606924,0.1745596275
559021.5200242210,0.0022474812,-0.0016143948,9.7943284625,-0.0021146345,0.0001498418,0.1745596275
559021.5300242211,0.0040439039,0.0061721896,9.7938592659,-0.0008661222,0.0001172899,0.1745704751
559021.5400242209,0.0045243663,-0.0034342971,9.7920209480,-0.0018323622,0.0001715430,0.1745596275
559021.5500242210,0.0029719091,0.0063205479,9.7934106876,-0.0012786741,0.0001172899,0.1745704751
559021.5600242210,0.0025603710,-0.0026810410,9.7947829660,-0.0013329572,0.0001606924,0.1745487799
559021.5700242210,0.0025352698,0.0025051519,9.7941752987,-0.0017889357,0.0001389912,0.1745162371
559021.5800242210,0.0034631159,0.0008307603,9.7949294677,-0.0010289716,0.0001064393,0.1745813227
559021.5900242210,0.0034577329,0.0018985182,9.7947774462,-0.0019734984,0.0001606924,0.1746030179
559021.6000242210,0.0020741242,0.0037234220,9.7943321727,-0.0009204053,0.0001389912,0.1745921703
559021.6100242210,0.0023986829,-0.0028336377,9.7935640869,-0.0019409285,0.0001498418,0.1745596275
559021.6200242210,0.0034384662,0.0043395044,9.7935584843,-0.0010072584,0.0001172899,0.1745921703
559021.6300242210,0.0048295508,-0.0022131090,9.7926290076,-0.0017997923,0.0001606924,0.1746030179
559021.6400242220,0.0026746879,0.0055563850,9.7940229153,-0.0012352476,0.0001498418,0.1746247130
559021.6500242220,0.0013326660,-0.0039055642,9.7932674602,-0.0014958067,0.0001281405,0.1745921703
559021.6600242220,0.0029857068,0.0040323664,9.7940196803,-0.0016152296,0.0001281405,0.1746030179
559021.6700242220,0.0054472022,-0.0000761337,9.7946075361,-0.0011049680,0.0001498418,0.1745921703
559021.6800242220,0.0037596848,0.0011374813,9.7940120112,-0.0019300718,0.0001715430,0.1745704751
559021.6900242220,0.0003925847,0.0037167523,9.7938885995,-0.0008552655,0.0001064393,0.1745813227
559021.7000242220,0.0025524937,-0.0022231131,9.7940206265,-0.0020060683,0.0001606924,0.1745270847
559021.7100242220,0.0054227246,0.0052625167,9.7941524483,-0.0009746885,0.0001172899,0.1745813227
559021.7200242220,0.0040752911,-0.0034366590,9.7930923225,-0.0017672224,0.0001498418,0.1745813227
559021.7300242221,0.0011505573,0.0055500628,9.7941881124,-0.0013329572,0.0001389912,0.1745162371
559021.7400242219,0.0030149151,-0.0028314838,9.7943215607,-0.0013655271,0.0001281405,0.1745379323
559021.7500242220,0.0043676168,0.0035799965,9.7949231109,-0.0016477995,0.0001606924,0.1745162371
559021.7600242220,0.0039128146,0.0009855797,9.7940106727,-0.0010723981,0.0001606924,0.1745162371
559021.7700242220,0.0029987090,-0.0002381790,9.7935601978,-0.0019192152,0.0001389912,0.1745921703
559021.7800242220,0.0028349280,0.0032691760,9.7938680905,-0.0009312620,0.0001389912,0.1745704751
559021.7900242220,0.0027006922,-0.0029847057,9.7931039504,-0.0020169249,0.0001715430,0.1745704751
559021.8000242220,0.0029797003,0.0049476668,9.7937150793,-0.0009421186,0.0001064393,0.1745704751
559021.8100242220,0.0045294697,-0.0009946997,9.7938521812,-0.0017455092,0.0001715430,0.1745162371
559021.8200242220,0.0029809762,0.0055575661,9.7941728876,-0.0013112440,0.0001606924,0.1745487799
559021.8300242220,0.0036285669,-0.0043541130,9.7940107687,-0.0013872404,0.0001064393,0.1745487799
559021.8400242220,0.0043669072,0.0025125858,9.7943125836,-0.0016803694,0.0001715430,0.1745379323
559021.8500242220,0.0040562824,0.0017491868,9.7932472040,-0.0010181150,0.0001389912,0.1745379323
559021.8600242221,0.0029885381,0.0017448098,9.7932560851,-0.0020712080,0.0001498418,0.1745596275
559021.8700242219,0.0033003240,0.0018981707,9.7941686759,-0.0008444089,0.0001498418,0.1745704751
559021.8800242220,0.0043870197,-0.0038932669,9.7936996148,-0.0019300718,0.0001606924,0.1745596275
559021.8900242220,0.0040403630,0.0073923355,9.7940123337,-0.0010398282,0.0001389912,0.1745596275
559021.9000242220,0.0028544742,-0.0026791655,9.7934078407,-0.0017237959,0.0001606924,0.1746030179
559021.9100242220,0.0025353271,0.0031151207,9.7944805972,-0.0014415235,0.0001498418,0.1746247130
559021.9200242220,0.0037721207,-0.0026755527,9.7937052478,-0.0012352476,0.0001172899,0.1746138654
559021.9300242220,0.0042108315,0.0037321064,9.7944669201,-0.0017889357,0.0002040949,0.1746030179
559021.9400242220,0.0025304244,0.0028104141,9.7937179089,-0.0010072584,0.0001172899,0.1745053895
559021.9500242220,0.0026965851,-0.0013070485,9.7934097372,-0.0019409285,0.0001606924,0.1745379323
559021.9600242220,0.0042107168,0.0025121689,9.7938563230,-0.0008986921,0.0001498418,0.1745379323
559021.9700242220,0.0034580124,-0.0016088371,9.7930982345,-0.0019409285,0.0001498418,0.1745162371
559021.9800242221,0.0032836377,0.0058639399,9.7940179799,-0.0010398282,0.0001498418,0.1745162371
559021.9900242219,0.0030185133,-0.0034416609,9.7944737915,-0.0017889357,0.0001606924,0.1745487799
559022.0000242220,0.0037453781,0.0044931430,9.7938610361,-0.0012895307,0.0001172899,0.1745487799
559022.0100242220,0.0036111709,-0.0014557543,9.7932495453,-0.0013980970,0.0001498418,0.1748525125
559022.0200242220,0.0034415268,0.0044918230,9.7940160833,-0.0016369429,0.0001606924,0.1745921703
559022.0300242220,0.0036142602,-0.0009984513,9.7938597936,-0.0011375379,0.0001172899,0.1745921703
559022.0400242220,0.0033038362,0.0003730404,9.7938629589,-0.0018540754,0.0001606924,0.1746138654
559022.0500242220,0.0033010336,0.0029655813,9.7947792033,-0.0009312620,0.0001172899,0.1746681034
559022.0600242220,0.0040706178,-0.0013014905,9.7935508283,-0.0020712080,0.0001606924,0.1746138654
559022.0700242220,0.0035976886,0.0041872555,9.7943196946,-0.0009204053,0.0001389912,0.1746030179
559022.0800242220,0.0030189362,-0.0054240942,9.7935578261,-0.0018215056,0.0001498418,0.1746030179
559022.0900242220,0.0035905496,0.0060175785,9.7943205317,-0.0012135343,0.0001389912,0.1746030179
559022.1000242220,0.0037637632,-0.0008451603,9.7935535751,-0.0014198103,0.0001606924,0.1745379323
559022.1100242221,0.0034475047,0.0032715382,9.7941680350,-0.0017346525,0.0001389912,0.1745487799
559022.1200242219,0.0028516144,-0.0006965933,9.7940187865,-0.0010289716,0.0001498418,0.1745596275
559022.1300242220,0.0030048589,0.0003714426,9.7946280451,-0.0019626417,0.0001715430,0.1745921703
559022.1400242220,0.0042036065,0.0046474763,9.7940098094,-0.0008878354,0.0001172899,0.1745921703
559022.1500242220,0.0042303490,-0.0025212194,9.7938540211,-0.0019734984,0.0001606924,0.1745487799
559022.1600242220,0.0037550402,0.0035776343,9.7946231663,-0.0009855451,0.0001389912,0.1745813227
559022.1700242220,0.0033150536,-0.0034399243,9.7934036857,-0.0017455092,0.0001498418,0.1745921703
559022.1800242220,0.0028254667,0.0063195754,9.7941745051,-0.0013003873,0.0001498418,0.1746138654
559022.1900242220,0.0042279120,-0.0025210805,9.7935490016,-0.0014632368,0.0001389912,0.1745921703
559022.2000242220,0.0040600240,0.0026639316,9.7941626810,-0.0016152296,0.0001715430,0.1745487799
559022.2100242220,0.0034520920,0.0002214165,9.7932515813,-0.0010506849,0.0001172899,0.1745596275
559022.2200242220,0.0028462888,0.0009811333,9.7941720636,-0.0019843550,0.0001715430,0.1745162371
559022.2300242221,0.0040600240,0.0026639316,9.7941626810,-0.0008118390,0.0001172899,0.1745053895
559022.2400242219,0.0042393301,-0.0041991544,9.7941582733,-0.0020277815,0.0001823937,0.1745596275
559022.2500242220,0.0028267139,0.0066244904,9.7944796641,-0.0010181150,0.0001389912,0.1745596275
559022.2600242220,0.0040771905,-0.0026743022,9.7937027103,-0.0017129393,0.0001606924,0.1745596275
559022.2700242220,0.0028301687,0.0044893913,9.7938686485,-0.0014089536,0.0001498418,0.1745813227
559022.2800242220,0.0037769661,-0.0029808149,9.7941626375,-0.0012678175,0.0001389912,0.1746030179
559022.2900242220,0.0032954787,0.0022034328,9.7937112862,-0.0017346525,0.0001606924,0.1745487799
559022.3000242220,0.0039086215,0.0017482837,9.7938585117,-0.0010181150,0.0001498418,0.1745813227
559022.3100242220,0.0026925067,0.0006755931,9.7938681733,-0.0019843550,0.0001606924,0.1745596275
559022.3200242220,0.0031472802,0.0029650255,9.7946279623,-0.0008986921,0.0001389912,0.1746138654
559022.3300242220,0.0040831397,-0.0041995713,9.7937020127,-0.0019843550,0.0001606924,0.1746464082
559022.3400242220,0.0038937200,0.0052564723,9.7937076064,-0.0009746885,0.0001498418,0.1746138654
559022.3500242220,0.0026989934,-0.0016121718,9.7935621075,-0.0017672224,0.0001498418,0.1746030179
559022.3600242221,0.0017624243,0.0044850144,9.7938775297,-0.0012786741,0.0001498418,0.1746138654
559022.3700242219,0.0046926844,-0.0040445433,9.7936970075,-0.0014089536,0.0001606924,0.1745921703
559022.3800242220,0.0035982262,0.0034247598,9.7940143263,-0.0016586561,0.0001498418,0.1745596275
559022.3900242220,0.0022289528,0.0021989864,9.7938726771,-0.0010723981,0.0001389912,0.1744836943
559022.4000242220,0.0033013705,0.0000681948,9.7934052901,-0.0020060683,0.0001715430,0.1745270847
559022.4100242220,0.0034540201,0.0012887577,9.7940146184,-0.0008118390,0.0001172899,0.1745596275
559022.4200242220,0.0056020020,-0.0019055537,9.7939953912,-0.0019409285,0.0001823937,0.1745379323
559022.4300242220,0.0009908547,0.0070747761,9.7940375690,-0.0010289716,0.0001498418,0.1745270847
559022.4400242220,0.0024069831,-0.0052739989,9.7934104610,-0.0017672224,0.0001498418,0.1745813227
559022.4500242220,0.0049608694,0.0054133761,9.7936987950,-0.0013329572,0.0001389912,0.1745379323
559022.4600242220,0.0049833902,-0.0012975999,9.7932381964,-0.0013546705,0.0001715430,0.1746030179
559022.4700242220,0.0028446474,0.0029636361,9.7949355192,-0.0017672224,0.0001498418,0.1745487799
559022.4800242221,0.0027113219,-0.0000879442,9.7958504514,-0.0010072584,0.0001389912,0.1745813227
559022.4900242219,0.0030072099,-0.0005436494,9.7944751168,-0.0019192152,0.0001606924,0.1745704751
559022.5000242220,0.0046502159,0.0043449926,9.7924807661,-0.0008878354,0.0001389912,0.1745921703
559022.5100242220,0.0040734490,-0.0035890470,9.7927872332,-0.0019952116,0.0001823937,0.1745487799
559022.5200242220,0.0019113897,0.0054008011,9.7938766795,-0.0009529752,0.0001389912,0.1745270847
559022.5300242220,0.0034591449,-0.0025238597,9.7927927965,-0.0017563658,0.0001389912,0.1745487799
559022.5400242220,0.0041975999,0.0055627766,9.7937052084,-0.0013655271,0.0001606924,0.1745270847
559022.5500242220,0.0051527835,-0.0034328376,9.7943035194,-0.0012895307,0.0001389912,0.1744945419
559022.5600242220,0.0029922509,0.0023545703,9.7940189129,-0.0017237959,0.0001606924,0.1745053895
559022.5700242220,0.0028349567,0.0035741604,9.7940207397,-0.0010289716,0.0001064393,0.1744511515
559022.5800242220,0.0042189883,-0.0002331768,9.7935500479,-0.0019843550,0.0001715430,0.1744619991
559022.5900242220,0.0043680684,0.0019025476,9.7941597948,-0.0009204053,0.0001389912,0.1746030179
559022.6000242220,0.0036225891,-0.0031338282,9.7938588170,-0.0019300718,0.0001932443,0.1747114938
559022.6100242221,0.0026692476,0.0060141741,9.7935655953,-0.0009855451,0.0001064393,0.1747440366
559022.6200242219,0.0031637658,-0.0031356346,9.7937101135,-0.0017672224,0.0001715430,0.1746464082
559022.6300242220,0.0054269177,0.0044998127,9.7943046092,-0.0012895307,0.0001498418,0.1745487799
559022.6400242220,0.0033187664,-0.0028301638,9.7941665135,-0.0013763838,0.0001715430,0.1745379323
559022.6500242220,0.0029863591,0.0044898083,9.7943249090,-0.0016477995,0.0001498418,0.1744945419
559022.6600242220,0.0026901270,0.0012857008,9.7938684524,-0.0011483945,0.0001172899,0.1745053895
559022.6700242220,0.0048218742,0.0003797098,9.7929352130,-0.0018432188,0.0001715430,0.1745379323
559022.6800242220,0.0049818062,0.0012948716,9.7943069506,-0.0008986921,0.0001498418,0.1745270847
559022.6900242220,0.0036172348,-0.0017610859,9.7938594448,-0.0019843550,0.0001715430,0.1744511515
559022.7000242220,0.0028290649,0.0057093983,9.7943267358,-0.0009421186,0.0001172899,0.1744728467
559022.7100242220,0.0043851489,-0.0043506394,9.7932418762,-0.0018540754,0.0001606924,0.1744728467
559022.7200242230,0.0055775818,0.0040430655,9.7938456020,-0.0012678175,0.0001498418,0.1745487799
559022.7300242230,0.0042291305,-0.0025211500,9.7937015113,-0.0013763838,0.0001606924,0.1745921703
559022.7400242230,0.0037501948,0.0038828964,9.7941657766,-0.0017020826,0.0001498418,0.1745596275
559022.7500242230,0.0029963580,0.0006769131,9.7937131261,-0.0010181150,0.0001389912,0.1746030179
559022.7600242230,0.0045264664,-0.0005370495,9.7936998807,-0.0019300718,0.0001715430,0.1745921703
559022.7700242230,0.0032932137,0.0040334781,9.7943221623,-0.0008444089,0.0001389912,0.1746030179
559022.7800242230,0.0030070665,-0.0020685714,9.7937118705,-0.0019843550,0.0001715430,0.1746030179
559022.7900242230,0.0034349541,0.0058646347,9.7938642014,-0.0010398282,0.0001389912,0.1745053895
559022.8000242230,0.0049958835,-0.0045006652,9.7932367315,-0.0017129393,0.0001498418,0.1744945419
559022.8100242231,0.0026715986,0.0050990820,9.7934126670,-0.0013329572,0.0001715430,0.1745053895
559022.8200242230,0.0031615295,-0.0010006049,9.7944736388,-0.0013221006,0.0001498418,0.1745162371
559022.8300242230,0.0031460617,0.0029650949,9.7944754525,-0.0017020826,0.0001498418,0.1745053895
559022.8400242230,0.0033020227,0.0005256367,9.7937105189,-0.0010506849,0.0001498418,0.1745704751
559022.8500242230,0.0042184507,0.0005293189,9.7938554162,-0.0019409285,0.0001606924,0.1745704751
559022.8600242230,0.0031405928,0.0031178996,9.7938654832,-0.0008769788,0.0001498418,0.1746030179
559022.8700242230,0.0039246556,-0.0026749274,9.7937039790,-0.0019734984,0.0001715430,0.1745487799
559022.8800242230,0.0031371953,0.0058629675,9.7947817974,-0.0009421186,0.0001389912,0.1745921703
559022.8900242230,0.0049971306,-0.0041957502,9.7935418906,-0.0017455092,0.0001606924,0.1745596275
559022.9000242230,0.0043549802,0.0052581398,9.7941613294,-0.0013329572,0.0001715430,0.1745921703
559022.9100242230,0.0020984872,-0.0028351660,9.7941766634,-0.0013112440,0.0001172899,0.1746355606
559022.9200242230,0.0022222940,0.0026568449,9.7932628473,-0.0018106489,0.0001606924,0.1746030179
559022.9300242231,0.0049769895,0.0019051181,9.7940022101,-0.0009529752,0.0001172899,0.1746030179
559022.9400242229,0.0042255323,-0.0019109729,9.7935492806,-0.0019626417,0.0001715430,0.1745596275
559022.9500242230,0.0037429411,0.0044932818,9.7935560166,-0.0008661222,0.0001498418,0.1745704751
559022.9600242230,0.0019416445,-0.0032930248,9.7934151741,-0.0019192152,0.0001606924,0.1745487799
559022.9700242230,0.0035959038,0.0046448363,9.7943199038,-0.0010941114,0.0001064393,0.1745704751
559022.9800242230,0.0054482200,-0.0022110939,9.7936915009,-0.0016803694,0.0001715430,0.1745813227
559022.9900242230,0.0043567936,0.0051055434,9.7943137694,-0.0013655271,0.0001498418,0.1746138654
559023.0000242230,0.0030112883,-0.0025262911,9.7940166807,-0.0013221006,0.0001498418,0.1746138654
559023.0100242230,0.0028318961,0.0034218418,9.7935631407,-0.0017020826,0.0001498418,0.1748742077
559023.0200242230,0.0045259002,-0.0000795382,9.7938525997,-0.0010181150,0.0001498418,0.1746464082
559023.0300242230,0.0049834762,-0.0003826467,9.7936961442,-0.0019626417,0.0001715430,0.1746355606
559023.0400242230,0.0028313585,0.0041843375,9.7938685090,-0.0008552655,0.0001389912,0.1746138654
559023.0500242230,0.0031637658,-0.0031356346,9.7937101135,-0.0019952116,0.0001498418,0.1745162371
559023.0600242231,0.0034386383,0.0061694107,9.7944743799,-0.0010398282,0.0001172899,0.1745379323
559023.0700242230,0.0040789753,-0.0031318829,9.7937025010,-0.0016586561,0.0001606924,0.1744945419
559023.0800242230,0.0038991602,0.0047986832,9.7941649264,-0.0013872404,0.0001498418,0.1744945419
559023.0900242230,0.0036177724,-0.0025235816,9.7935540765,-0.0012678175,0.0001498418,0.1745053895
559023.1000242230,0.0036023619,0.0020520870,9.7938611887,-0.0017346525,0.0001606924,0.1745053895
559023.1100242230,0.0036071499,0.0011368561,9.7940132799,-0.0009638318,0.0001389912,0.1745596275
559023.1200242230,0.0034599406,-0.0005414959,9.7938612716,-0.0020277815,0.0001823937,0.1745704751
559023.1300242230,0.0032913716,0.0038810900,9.7940170730,-0.0008335523,0.0001172899,0.1745704751
559023.1400242230,0.0030202407,-0.0045092104,9.7941682837,-0.0019409285,0.0001715430,0.1745704751
559023.1500242230,0.0040452371,0.0073920577,9.7946223728,-0.0010723981,0.0001606924,0.1746138654
559023.1600242230,0.0040759147,-0.0032842015,9.7932449020,-0.0015718031,0.0001389912,0.1746247130
559023.1700242230,0.0037525458,0.0029678043,9.7940128483,-0.0015283766,0.0001498418,0.1746355606
559023.1800242231,0.0039150796,-0.0008444656,9.7933997966,-0.0011375379,0.0001389912,0.1746030179
559023.1900242229,0.0040660592,0.0020536156,9.7946199313,-0.0019083586,0.0001498418,0.1745704751
559023.2000242230,0.0032943175,0.0028134710,9.7938640750,-0.0008661222,0.0001606924,0.1745270847
559023.2100242230,0.0040813549,-0.0037419906,9.7937022220,-0.0020277815,0.0001606924,0.1745162371
559023.2200242230,0.0040499964,0.0061718424,9.7946218147,-0.0008769788,0.0001498418,0.1745270847
559023.2300242230,0.0040783230,-0.0035893248,9.7933972722,-0.0018215056,0.0001606924,0.1745162371
559023.2400242230,0.0045049921,0.0043439507,9.7933970934,-0.0012461042,0.0001389912,0.1745053895
559023.2500242230,0.0040729401,-0.0025215669,9.7932452508,-0.0013980970,0.0001498418,0.1745704751
559023.2600242230,0.0048196379,0.0025147394,9.7936987383,-0.0017020826,0.0001715430,0.1746138654
559023.2700242230,0.0036028995,0.0012895913,9.7935558204,-0.0009855451,0.0001172899,0.1746247130
559023.2800242230,0.0036233560,-0.0014564487,9.7947746429,-0.0019843550,0.0001715430,0.1746138654
559023.2900242230,0.0032878021,0.0047962515,9.7940174916,-0.0008444089,0.0001389912,0.1745921703
559023.3000242230,0.0045371462,-0.0035875184,9.7935459758,-0.0019626417,0.0001606924,0.1746138654
559023.3100242231,0.0042011694,0.0046476151,9.7937047899,-0.0010506849,0.0001389912,0.1746030179
559023.3200242230,0.0042350797,-0.0040464191,9.7937008138,-0.0016152296,0.0001823937,0.1745921703
559023.3300242230,0.0035892451,0.0051026948,9.7937100741,-0.0014632368,0.0001606924,0.1745487799
559023.3400242230,0.0037649530,-0.0011502141,9.7935534356,-0.0012135343,0.0001389912,0.1745704751
559023.3500242230,0.0051325277,0.0014480932,9.7941532418,-0.0018106489,0.0001823937,0.1745487799
559023.3600242230,0.0046712961,0.0017514101,9.7938521680,-0.0008986921,0.0001389912,0.1745270847
559023.3700242230,0.0028527755,-0.0013066316,9.7938659978,-0.0020494948,0.0001823937,0.1745053895
559023.3800242230,0.0042078282,0.0041897566,9.7943146196,-0.0008661222,0.0001172899,0.1745162371
559023.3900242230,0.0043851776,-0.0040456550,9.7933945255,-0.0018866453,0.0001498418,0.1745487799
559023.4000242230,0.0041994707,0.0060201491,9.7941629469,-0.0012135343,0.0001715430,0.1745379323
559023.4100242230,0.0039161547,-0.0023694570,9.7927890600,-0.0013980970,0.0001389912,0.1745813227
559023.4200242230,0.0037604231,0.0025098764,9.7947751878,-0.0017455092,0.0001715430,0.1745596275
559023.4300242231,0.0042136340,0.0011395655,9.7935506757,-0.0009204053,0.0001172899,0.1746030179
559023.4400242229,0.0039168930,-0.0009970619,9.7935522366,-0.0020169249,0.0001823937,0.1746138654
559023.4500242230,0.0039027584,0.0041885061,9.7943171571,-0.0008661222,0.0001498418,0.1745921703
559023.4600242230,0.0043900229,-0.0043509171,9.7938519153,-0.0019409285,0.0001715430,0.1745704751
559023.4700242230,0.0043519769,0.0057157900,9.7940090289,-0.0010723981,0.0001389912,0.1745379323
559023.4800242230,0.0039192153,-0.0022171384,9.7932466590,-0.0015826597,0.0001606924,0.1745379323
559023.4900242230,0.0039063566,0.0035783290,9.7944693878,-0.0014198103,0.0001498418,0.1745704751
559023.5000242230,0.0039210861,-0.0017597659,9.7937043976,-0.0012243909,0.0001498418,0.1745487799
559023.5100242230,0.0036042040,0.0022044750,9.7941662780,-0.0018215056,0.0001606924,0.1745379323
559023.5200242230,0.0040605329,0.0015964515,9.7937046635,-0.0009421186,0.0001172899,0.1745379323
559023.5300242230,0.0051365774,-0.0008395328,9.7935421565,-0.0019952116,0.0001715430,0.1744511515
559023.5400242230,0.0043585497,0.0043429783,9.7941609109,-0.0008769788,0.0001498418,0.1745053895
559023.5500242230,0.0033198702,-0.0040501708,9.7937084262,-0.0018975020,0.0001606924,0.1745379323
559023.5600242231,0.0038937200,0.0052564723,9.7937076064,-0.0010615415,0.0001498418,0.1745596275
559023.5700242230,0.0045414254,-0.0034352692,9.7941560846,-0.0016369429,0.0001498418,0.1745813227
559023.5800242230,0.0046576417,0.0055645136,9.7940064217,-0.0014089536,0.0001823937,0.1746355606
559023.5900242230,0.0036182526,-0.0038960461,9.7929434097,-0.0012786741,0.0001389912,0.1746138654
559023.6000242230,0.0036066410,0.0022043362,9.7944712975,-0.0017563658,0.0001606924,0.1745921703
559023.6100242230,0.0045127833,0.0029710696,9.7937014851,-0.0009421186,0.0001498418,0.1745704751
559023.6200242230,0.0048302317,-0.0014506827,9.7930868856,-0.0019952116,0.0002149455,0.1746138654
559023.6300242230,0.0043632804,0.0028177785,9.7940077036,-0.0008444089,0.0001172899,0.1746247130
559023.6400242230,0.0037745004,-0.0032856604,9.7937049687,-0.0019192152,0.0001823937,0.1746030179
559023.6500242230,0.0035887648,0.0064751593,9.7943207409,-0.0010506849,0.0001389912,0.1745704751
559023.6600242230,0.0046944405,-0.0048071084,9.7935441490,-0.0016695127,0.0001715430,0.1744945419
559023.6700242230,0.0043590873,0.0035804826,9.7938555426,-0.0013763838,0.0001715430,0.1745162371
559023.6800242231,0.0052920869,-0.0016015421,9.7935405389,-0.0011918211,0.0001606924,0.1744945419
559023.6900242229,0.0037518649,0.0022053781,9.7935549702,-0.0018540754,0.0001281405,0.1744511515
559023.7000242230,0.0045181663,0.0019033118,9.7938535065,-0.0008444089,0.0001498418,0.1745270847
559023.7100242230,0.0048422161,-0.0035862678,9.7935434383,-0.0020603514,0.0001389912,0.1745704751
559023.7200242230,0.0034404230,0.0057118300,9.7944741706,-0.0008661222,0.0001498418,0.1746030179
559023.7300242230,0.0042393014,-0.0045041388,9.7940056240,-0.0018215056,0.0001606924,0.1745596275
559023.7400242230,0.0041964675,0.0064777993,9.7940106465,-0.0012895307,0.0001389912,0.1745921703
559023.7500242230,0.0057508528,-0.0022097045,9.7933839439,-0.0013329572,0.0001606924,0.1745921703
559023.7600242230,0.0039146567,0.0011379677,9.7943157620,-0.0016695127,0.0001715430,0.1745596275
559023.7700242230,0.0028438518,0.0009812722,9.7938670441,-0.0010181150,0.0001172899,0.1745379323
559023.7800242230,0.0049829387,0.0003798490,9.7940015125,-0.0019734984,0.0001823937,0.1745487799
559023.7900242240,0.0048196666,0.0028197238,9.7938513876,-0.0008769788,0.0001172899,0.1745379323
559023.8000242240,0.0046914372,-0.0043494583,9.7933918485,-0.0019409285,0.0001823937,0.1745596275
559023.8100242240,0.0035905496,0.0060175785,9.7943205317,-0.0009638318,0.0001389912,0.1745053895
559023.8200242240,0.0045323296,-0.0029772718,9.7932412353,-0.0017237959,0.0001498418,0.1745487799
559023.8300242240,0.0042108315,0.0037321064,9.7944669201,-0.0013763838,0.0001606924,0.1745487799
559023.8400242240,0.0039282538,-0.0032851045,9.7938562098,-0.0012786741,0.0001606924,0.1746030179
559023.8500242240,0.0032912569,0.0026611524,9.7934064759,-0.0017889357,0.0001498418,0.1745596275
559023.8600242240,0.0039068081,0.0019008801,9.7937060717,-0.0009529752,0.0001172899,0.1745813227
559023.8700242240,0.0051449922,-0.0020599564,9.7939991277,-0.0019952116,0.0001823937,0.1745921703
559023.8800242241,0.0048130651,0.0038875511,9.7935468564,-0.0008552655,0.0001389912,0.1746030179
559023.8900242239,0.0042296681,-0.0032836457,9.7933961430,-0.0018866453,0.0001715430,0.1745596275
559023.9000242240,0.0034416128,0.0054067762,9.7944740311,-0.0011049680,0.0001498418,0.1745596275
559023.9100242240,0.0051430354,-0.0034322821,9.7930834413,-0.0015935163,0.0001498418,0.1745379323
559023.9200242240,0.0057374277,0.0040432742,9.7947593918,-0.0014632368,0.0001715430,0.1744945419
559023.9300242240,0.0028515283,-0.0016115465,9.7935608387,-0.0012461042,0.0001498418,0.1744619991
559023.9400242240,0.0037548108,0.0011377591,9.7934019722,-0.0017563658,0.0001498418,0.1745270847
559023.9500242240,0.0042215400,0.0009866219,9.7944656645,-0.0008661222,0.0001389912,0.1745270847
559023.9600242240,0.0052914633,-0.0017539996,9.7933879594,-0.0020277815,0.0001715430,0.1745704751
559023.9700242240,0.0040535946,0.0055616653,9.7947740454,-0.0008444089,0.0001064393,0.1745921703
559023.9800242240,0.0036230406,-0.0048112771,9.7930955009,-0.0019083586,0.0001823937,0.1746030179
559023.9900242240,0.0038992749,0.0060186208,9.7947755235,-0.0011592512,0.0001498418,0.1746247130
559024.0000242240,0.0049936185,-0.0026706199,9.7938476076,-0.0014198103,0.0001498418,0.1746247130
559024.0100242239,0.0046671317,0.0028190985,9.7938526563,-0.0016586561,0.0001715430,0.1748959029
559024.0200242240,0.0043764259,0.0000721552,9.7943114675,-0.0009529752,0.0001172899,0.1746030179
559024.0300242240,0.0039109152,0.0002232229,9.7934002849,-0.0019952116,0.0001715430,0.1745596275
559024.0400242240,0.0039093025,0.0025107100,9.7943163898,-0.0008335523,0.0001389912,0.1745813227
559024.0500242240,0.0059087706,-0.0032768371,9.7935346967,-0.0019626417,0.0001498418,0.1745270847
559024.0600242240,0.0055698479,0.0060259155,9.7938465088,-0.0009855451,0.0001606924,0.1745053895
559024.0700242240,0.0037769087,-0.0035907837,9.7938573390,-0.0017129393,0.0001606924,0.1745053895
559024.0800242240,0.0031424348,0.0032702876,9.7941705725,-0.0013003873,0.0001498418,0.1745270847
559024.0900242240,0.0048398651,-0.0026711758,9.7936963666,-0.0012678175,0.0001172899,0.1745813227
559024.1000242240,0.0049740723,0.0032777215,9.7943078574,-0.0017997923,0.0001823937,0.1746138654
559024.1100242240,0.0045205746,0.0015981885,9.7940058768,-0.0008878354,0.0001172899,0.1746138654
559024.1200242240,0.0042351944,-0.0028264815,9.7943114108,-0.0020494948,0.0001715430,0.1746138654
559024.1300242241,0.0037514420,0.0041878114,9.7944709356,-0.0008444089,0.0001389912,0.1746030179
559024.1400242239,0.0059051151,-0.0032766287,9.7930771674,-0.0018757887,0.0001715430,0.1745921703
