t(s),acc_x,acc_y,acc_z,gyro_x,gyro_y,gyro_z
558510.0000237450,-9.7918973497,0.0016462343,0.0007564613,-0.0000627316,0.0000413356,0.0003472743
558510.0100237450,-9.7911227195,-0.0007912088,0.0010540211,-0.0000518750,0.0000847381,-0.0005639236
558510.0200237450,-9.7920648722,0.0042388444,0.0001488769,-0.0000410183,0.0000738874,0.0004557502
558510.0300237450,-9.7909885768,-0.0020094796,-0.0018454911,-0.0000084485,0.0000738874,-0.0005422284
558510.0400237450,-9.7926838782,0.0071342158,0.0004602967,-0.0000410183,0.0000738874,0.0002930363
558510.0500237450,-9.7914171094,-0.0038429283,0.0009026536,0.0000024082,0.0000738874,-0.0002818861
558510.0600237451,-9.7932868502,0.0056063761,0.0006171839,-0.0000410183,0.0000847381,0.0000326941
558510.0700237449,-9.7912893962,-0.0021634654,-0.0013854941,-0.0000627316,0.0000738874,0.0000218465
558510.0800237450,-9.7929873640,0.0045404937,-0.0006059200,-0.0000518750,0.0000738874,-0.0002601910
558510.0900237450,-9.7926575585,0.0019479535,0.0012204738,-0.0000518750,0.0000738874,0.0002496459
558510.1000237450,-9.7920500280,0.0001206871,-0.0000055163,0.0000024082,0.0000847381,-0.0004879904
558510.1100237450,-9.7922223385,0.0036285281,-0.0007651920,-0.0000301617,0.0000521862,0.0004665978
558510.1200237450,-9.7909762771,-0.0007902364,0.0002902035,-0.0000084485,0.0000847381,-0.0005964664
558510.1300237450,-9.7931342579,0.0062169702,0.0009212137,-0.0000953015,0.0000738874,0.0003581219
558510.1400237450,-9.7912694486,-0.0038420253,0.0002913459,-0.0000301617,0.0000630368,-0.0003252765
558510.1500237450,-9.7929981012,0.0069809939,-0.0007573136,-0.0000627316,0.0000847381,0.0000760844
558510.1600237450,-9.7915877499,-0.0020126056,-0.0004678284,-0.0000084485,0.0000738874,-0.0000432391
558510.1700237450,-9.7923638781,0.0039322622,0.0007613139,0.0000024082,0.0000738874,-0.0002818861
558510.1800237451,-9.7926546986,-0.0000346187,0.0006095279,-0.0000410183,0.0000738874,0.0003038839
558510.1900237449,-9.7917552438,0.0008849888,-0.0009227635,-0.0000084485,0.0000413356,-0.0005205332
558510.2000237450,-9.7922264742,0.0050012009,-0.0006120544,-0.0000627316,0.0000738874,0.0004340550
558510.2100237450,-9.7920331982,-0.0023201602,0.0009084262,-0.0000410183,0.0000847381,-0.0005422284
558510.2200237450,-9.7931379995,0.0053022253,0.0000057366,-0.0000518750,0.0000738874,0.0003472743
558510.2300237450,-9.7908226670,-0.0023146025,-0.0003218018,0.0000024082,0.0000955887,-0.0003795145
558510.2400237450,-9.7922250837,0.0068310378,0.0004563510,-0.0000193051,0.0000630368,0.0001194748
558510.2500237450,-9.7918862470,-0.0033866679,-0.0003134089,-0.0000193051,0.0000738874,-0.0001083246
558510.2600237450,-9.7923777906,0.0050005062,-0.0004582759,-0.0000301617,0.0000738874,-0.0001300198
558510.2700237450,-9.7914392647,0.0002756456,0.0001419883,-0.0000518750,0.0000630368,0.0001303224
558510.2800237450,-9.7922066126,0.0024076878,0.0006068378,-0.0000518750,0.0000738874,-0.0004012097
558510.2900237450,-9.7919022237,0.0016465121,0.0001464223,-0.0000518750,0.0000847381,0.0003472743
558510.3000237450,-9.7917456391,-0.0006404887,-0.0004659318,0.0000132648,0.0000630368,-0.0005205332
558510.3100237451,-9.7928317112,0.0053034064,0.0001557089,-0.0000301617,0.0000738874,0.0004123598
558510.3200237449,-9.7912795335,-0.0009440833,0.0004451810,-0.0000193051,0.0000955887,-0.0004988380
558510.3300237450,-9.7928286505,0.0054557250,0.0006133079,-0.0000410183,0.0000413356,0.0003038839
558510.3400237450,-9.7908209683,-0.0036871365,-0.0007799589,-0.0000410183,0.0000847381,-0.0003686669
558510.3500237450,-9.7925385970,0.0077452265,-0.0001507320,-0.0000627316,0.0000738874,0.0001411700
558510.3600237450,-9.7920326320,-0.0027776716,0.0007557071,-0.0000301617,0.0000738874,-0.0001408674
558510.3700237450,-9.7925145996,0.0037790406,0.0009150226,-0.0000084485,0.0000847381,-0.0001625626
558510.3800237450,-9.7915882015,-0.0003351567,0.0002954877,-0.0000410183,0.0000630368,0.0002279508
558510.3900237450,-9.7922157370,0.0025607008,-0.0004606607,-0.0000301617,0.0000738874,-0.0004988380
558510.4000237450,-9.7919068397,0.0043916494,0.0009102267,-0.0000735882,0.0000738874,0.0004232074
558510.4100237450,-9.7918849998,-0.0030817529,-0.0000082499,-0.0000301617,0.0000738874,-0.0005639236
558510.4200237450,-9.7928274894,0.0048456868,0.0004605191,-0.0000518750,0.0000738874,0.0003689695
558510.4300237451,-9.7915907245,-0.0012499711,-0.0004674796,0.0000024082,0.0000847381,-0.0003903621
558510.4400237449,-9.7922221378,0.0057634188,0.0003033529,-0.0000301617,0.0000738874,0.0001628652
558510.4500237450,-9.7914183280,-0.0038428589,0.0007501439,0.0000024082,0.0000738874,-0.0001408674
558510.4600237450,-9.7925339237,0.0056100580,-0.0006092379,-0.0000301617,0.0000738874,-0.0000649343
558510.4700237450,-9.7917468002,-0.0000304504,-0.0003131430,-0.0000735882,0.0000630368,0.0000977796
558510.4800237450,-9.7923689242,0.0021026336,-0.0007646208,-0.0000410183,0.0000738874,-0.0003686669
558510.4900237450,-9.7920511318,0.0013406941,0.0004525710,-0.0000518750,0.0000738874,0.0003255791
558510.5000237450,-9.7920524363,0.0004258103,-0.0001578865,0.0000024082,0.0000630368,-0.0004988380
558510.5100237450,-9.7934389049,0.0042332863,0.0000077858,-0.0000193051,0.0000847381,0.0004123598
558510.5200237450,-9.7909763631,-0.0017051896,-0.0001677443,-0.0000193051,0.0000738874,-0.0005205332
558510.5300237450,-9.7919122226,0.0054594072,0.0007582052,-0.0000410183,0.0000738874,0.0003581219
558510.5400237460,-9.7911217303,-0.0032311535,-0.0000146634,-0.0000193051,0.0000955887,-0.0003686669
558510.5500237460,-9.7932988632,0.0074369769,0.0000079819,-0.0000735882,0.0000738874,0.0000760844
558510.5600237460,-9.7914274237,-0.0033848615,-0.0001647054,-0.0000084485,0.0000738874,-0.0000432391
558510.5700237460,-9.7922113719,0.0036279031,0.0006073959,-0.0000084485,0.0000738874,-0.0002059530
558510.5800237460,-9.7917472518,0.0016469985,0.0004501731,-0.0000410183,0.0000630368,0.0002279508
558510.5900237460,-9.7912939548,0.0011916407,-0.0003163912,-0.0000193051,0.0000738874,-0.0004988380
558510.6000237460,-9.7926648409,0.0022533545,0.0004580645,-0.0000735882,0.0000738874,0.0004340550
558510.6100237460,-9.7911336860,-0.0007905839,-0.0003185668,-0.0000301617,0.0000738874,-0.0005530760
558510.6200237460,-9.7931391320,0.0062172479,0.0003111746,-0.0000627316,0.0000738874,0.0003906647
558510.6300237461,-9.7917306515,-0.0032337240,0.0001429214,0.0000024082,0.0000847381,-0.0004662952
558510.6400237459,-9.7932874738,0.0054539186,0.0004646043,-0.0000518750,0.0000304849,0.0001954080
558510.6500237460,-9.7914250154,-0.0036899848,-0.0000123352,-0.0000193051,0.0001064393,-0.0001300198
558510.6600237460,-9.7928370654,0.0066761487,0.0001563367,-0.0000301617,0.0000738874,-0.0000757819
558510.6700237460,-9.7914356952,-0.0006395159,0.0001415697,-0.0000627316,0.0000738874,0.0000760844
558510.6800237460,-9.7923587246,0.0004246292,-0.0003078588,-0.0000301617,0.0000955887,-0.0003361241
558510.6900237460,-9.7922187977,0.0024083822,-0.0009182598,-0.0000627316,0.0000630368,0.0003038839
558510.7000237460,-9.7917478754,0.0014945410,0.0002975936,0.0000024082,0.0000630368,-0.0005096856
558510.7100237460,-9.7925158755,0.0031691413,0.0004572143,-0.0000301617,0.0000738874,0.0003689695
558510.7200237460,-9.7912808953,-0.0024689358,-0.0004705751,-0.0000193051,0.0000738874,-0.0004988380
558510.7300237460,-9.7928340908,0.0059135141,0.0001559879,-0.0000518750,0.0000738874,0.0003689695
558510.7400237460,-9.7915804389,-0.0020130223,0.0004472302,-0.0000301617,0.0000738874,-0.0004662952
558510.7500237460,-9.7926772481,0.0063713729,0.0009174772,-0.0000735882,0.0000738874,0.0001954080
558510.7600237461,-9.7918814590,-0.0043018988,-0.0001613177,-0.0000084485,0.0000738874,-0.0001625626
558510.7700237460,-9.7919213757,0.0053074358,-0.0004619426,-0.0000193051,0.0000738874,-0.0000540867
558510.7800237460,-9.7922025055,0.0007300306,0.0003010510,-0.0000084485,0.0000738874,0.0001086272
558510.7900237460,-9.7917514735,0.0021047181,0.0001453628,-0.0000193051,0.0000847381,-0.0004120573
558510.8000237460,-9.7923586673,0.0010345980,-0.0000025603,-0.0000735882,0.0000630368,0.0004123598
558510.8100237460,-9.7911409397,-0.0001801985,-0.0009283268,-0.0000084485,0.0000955887,-0.0005639236
558510.8200237460,-9.7929878729,0.0056079738,-0.0001479024,-0.0000627316,0.0000413356,0.0004232074
558510.8300237460,-9.7917258348,-0.0038439705,0.0004476618,-0.0000193051,0.0000738874,-0.0004879904
558510.8400237460,-9.7928285645,0.0063706782,0.0010712557,-0.0000301617,0.0000847381,0.0003038839
558510.8500237460,-9.7909789435,-0.0032299727,-0.0012360102,0.0000024082,0.0000847381,-0.0002168006
558510.8600237460,-9.7929944457,0.0069807855,-0.0002997844,-0.0000518750,0.0000738874,-0.0000866295
558510.8700237460,-9.7918829857,-0.0010994585,0.0012127350,-0.0000518750,0.0000847381,0.0001303224
558510.8800237461,-9.7928144586,0.0008801258,0.0001536859,-0.0000193051,0.0000738874,-0.0004120573
558510.8900237459,-9.7923706229,0.0034751676,-0.0003064637,-0.0000627316,0.0000630368,0.0004232074
558510.9000237460,-9.7909829072,-0.0000273935,-0.0001669770,0.0000024082,0.0000955887,-0.0005530760
558510.9100237460,-9.7923723217,0.0048477015,0.0001516934,-0.0000193051,0.0000738874,0.0003798171
558510.9200237460,-9.7912705811,-0.0029270027,0.0005967839,-0.0000084485,0.0000847381,-0.0004554476
558510.9300237460,-9.7922287679,0.0065262617,-0.0001538275,-0.0000518750,0.0000738874,0.0002713411
558510.9400237460,-9.7911228341,-0.0020111464,0.0004434240,-0.0000410183,0.0000738874,-0.0003252765
558510.9500237460,-9.7929836511,0.0051502542,0.0001569078,-0.0000953015,0.0000847381,0.0000760844
558510.9600237460,-9.7920392908,-0.0023198131,0.0001458774,-0.0000193051,0.0000738874,-0.0000649343
558510.9700237460,-9.7920757527,0.0051544225,-0.0007657631,-0.0000084485,0.0000738874,-0.0001951054
558510.9800237460,-9.7914362041,0.0004279642,0.0005995873,-0.0000410183,0.0000738874,0.0001737128
558510.9900237460,-9.7920554109,0.0011884449,-0.0001575378,0.0000024082,0.0000847381,-0.0004012097
558511.0000237460,-9.7925202119,0.0024069233,-0.0004581930,-0.0000627316,0.0000630368,0.0003689695
558511.0100237461,-9.7912939835,0.0008866563,-0.0004690405,-0.0000301617,0.0000955887,-0.0005747712
558511.0200237460,-9.7929788345,0.0045400077,0.0004616483,-0.0000627316,0.0000630368,0.0004340550
558511.0300237460,-9.7914231733,-0.0035375967,0.0002927541,-0.0000084485,0.0000738874,-0.0005096856
558511.0400237460,-9.7926839356,0.0065242470,0.0001549982,-0.0000193051,0.0000738874,0.0003038839
558511.0500237460,-9.7909740408,-0.0029252660,-0.0004733219,-0.0000084485,0.0000738874,-0.0002601910
558511.0600237460,-9.7928370941,0.0063711643,0.0000036874,-0.0000410183,0.0000738874,-0.0000215439
558511.0700237460,-9.7921917683,-0.0017104695,0.0004524446,-0.0000518750,0.0000738874,0.0000218465
558511.0800237460,-9.7925188787,0.0036267914,0.0003049138,-0.0000410183,0.0000738874,-0.0002601910
558511.0900237460,-9.7920547873,0.0013409024,-0.0000049582,-0.0000627316,0.0000738874,0.0002496459
558511.1000237460,-9.7917509360,0.0013422224,-0.0001600055,0.0000132648,0.0000738874,-0.0004988380
558511.1100237460,-9.7923633693,0.0028647821,0.0003032963,-0.0000410183,0.0000630368,0.0004232074
558511.1200237460,-9.7909757682,-0.0018577165,-0.0001678140,-0.0000084485,0.0000738874,-0.0005747712
558511.1300237461,-9.7922256786,0.0069835647,0.0004564208,-0.0000410183,0.0000738874,0.0004123598
558511.1400237459,-9.7909759402,-0.0036876229,-0.0010837097,-0.0000410183,0.0000738874,-0.0004229049
558511.1500237460,-9.7926785240,0.0057614736,0.0004596689,-0.0000518750,0.0000847381,0.0001303224
558511.1600237460,-9.7915852842,-0.0017077601,-0.0000101596,-0.0000301617,0.0000738874,-0.0000215439
558511.1700237460,-9.7925308918,0.0054573922,-0.0003042881,-0.0000084485,0.0000738874,-0.0003144289
558511.1800237460,-9.7922042903,0.0011876113,0.0003012603,-0.0000301617,0.0000738874,0.0003581219
558511.1900237460,-9.7915876639,-0.0010976524,-0.0000098806,0.0000024082,0.0000955887,-0.0005747712
558511.2000237460,-9.7923764574,0.0062203743,0.0003048309,-0.0000627316,0.0000738874,0.0004774454
558511.2100237460,-9.7911326109,-0.0023155753,-0.0009293034,-0.0000193051,0.0000955887,-0.0005422284
558511.2200237460,-9.7929848123,0.0057602925,0.0003096966,-0.0000518750,0.0000413356,0.0002713411
558511.2300237460,-9.7908045615,-0.0041455505,0.0010499489,-0.0000084485,0.0000847381,-0.0002168006
558511.2400237460,-9.7926881573,0.0069819667,-0.0001498121,-0.0000301617,0.0000738874,-0.0000323915
558511.2500237460,-9.7917462913,-0.0010979305,-0.0007711606,-0.0000193051,0.0000738874,0.0000760844
558511.2600237461,-9.7923628317,0.0021022864,-0.0000020720,-0.0000193051,0.0000738874,-0.0003903621
558511.2700237460,-9.7923580150,0.0014920399,0.0003026685,-0.0000735882,0.0000738874,0.0003798171
558511.2800237460,-9.7912849451,-0.0001813098,0.0001405103,-0.0000084485,0.0000738874,-0.0005856188
558511.2900237460,-9.7928292741,0.0053032675,0.0004607284,-0.0000953015,0.0000738874,0.0004449026
558511.3000237460,-9.7906617746,-0.0041443697,-0.0001713979,0.0000024082,0.0000738874,-0.0004771428
558511.3100237460,-9.7929890054,0.0065229965,0.0001575357,-0.0000301617,0.0000630368,0.0002604935
558511.3200237460,-9.7918885693,-0.0021665914,-0.0000078314,-0.0000084485,0.0000738874,-0.0001951054
558511.3300237460,-9.7928347431,0.0054560722,-0.0001492409,-0.0000518750,0.0000738874,-0.0000757819
558511.3400237460,-9.7921929582,-0.0014054157,0.0004525842,-0.0000410183,0.0000738874,0.0001086272
558511.3500237460,-9.7920546726,0.0025608400,0.0006056388,-0.0000301617,0.0000847381,-0.0003903621
558511.3600237460,-9.7923676197,0.0030175174,-0.0001541632,-0.0000410183,0.0000738874,0.0003689695
558511.3700237460,-9.7917486997,-0.0007928073,-0.0009235309,0.0000024082,0.0000847381,-0.0005422284
558511.3800237461,-9.7931320503,0.0037769561,0.0000050390,-0.0000301617,0.0000630368,0.0004232074
558511.3900237459,-9.7911203971,-0.0020112853,0.0007484435,-0.0000084485,0.0000738874,-0.0005205332
558511.4000237460,-9.7931360714,0.0063695665,0.0007687737,-0.0000518750,0.0000955887,0.0003364267
558511.4100237460,-9.7914341399,-0.0035369718,-0.0010798337,-0.0000301617,0.0000630368,-0.0003686669
558511.4200237460,-9.7926840216,0.0056092938,-0.0003029496,-0.0000735882,0.0000738874,0.0000977796
558511.4300237460,-9.7912674918,-0.0024696997,0.0012070322,-0.0000193051,0.0000738874,0.0000001513
558511.4400237460,-9.7922282303,0.0057637660,-0.0004591958,0.0000024082,0.0000738874,-0.0002601910
558511.4500237460,-9.7917437110,0.0004268526,0.0002971053,-0.0000410183,0.0000738874,0.0002930363
558511.4600237460,-9.7921977749,-0.0007951692,0.0001478437,-0.0000193051,0.0000630368,-0.0005205332
558511.4700237460,-9.7923674763,0.0045424393,0.0006090831,-0.0000627316,0.0000738874,0.0004557502
558511.4800237460,-9.7908249894,-0.0010945261,-0.0000162242,-0.0000410183,0.0000955887,-0.0005639236
558511.4900237460,-9.7933007913,0.0063696356,-0.0007550552,-0.0000518750,0.0000413356,0.0003581219
558511.5000237460,-9.7912676638,-0.0042996060,0.0002911366,0.0000024082,0.0000738874,-0.0003252765
558511.5100237461,-9.7929865684,0.0065228576,0.0004625552,-0.0000301617,0.0000738874,0.0000869320
558511.5200237460,-9.7917414173,-0.0010982083,-0.0001611216,-0.0000084485,0.0000738874,0.0000001513
558511.5300237460,-9.7925346620,0.0042376629,-0.0013724145,-0.0000301617,0.0000847381,-0.0003252765
558511.5400237460,-9.7918932426,-0.0000314229,0.0004506745,-0.0000627316,0.0000738874,0.0003472743
558511.5500237460,-9.7914320110,-0.0003347398,0.0007517483,-0.0000193051,0.0000738874,-0.0005530760
558511.5600237460,-9.7931416263,0.0056074180,-0.0002991434,-0.0000410183,0.0000630368,0.0004232074
558511.5700237460,-9.7914383043,-0.0024692834,-0.0010793454,-0.0000193051,0.0000738874,-0.0005530760
558511.5800237460,-9.7937499239,0.0057573049,0.0000110208,-0.0000410183,0.0000630368,0.0003689695
558511.5900237460,-9.7909637265,-0.0033833328,0.0005940372,-0.0000084485,0.0000847381,-0.0003252765
558511.6000237460,-9.7913141247,0.0069875247,-0.0000087209,-0.0000627316,0.0000738874,0.0000218465
558511.6100237460,-9.7917462913,-0.0010979305,-0.0007711606,-0.0000518750,0.0000630368,0.0000435417
558511.6200237470,-9.7919033562,0.0025615347,0.0004518603,-0.0000193051,0.0000847381,-0.0003903621
558511.6300237470,-9.7918954789,0.0021036068,0.0012141999,-0.0000518750,0.0000738874,0.0003798171
558511.6400237470,-9.7915948602,0.0001227018,-0.0003143420,0.0000132648,0.0000847381,-0.0005747712
558511.6500237470,-9.7934473484,0.0051487256,-0.0006018347,-0.0000410183,0.0000738874,0.0004449026
558511.6600237470,-9.7912785444,-0.0033840279,-0.0006235034,-0.0000193051,0.0000630368,-0.0005096856
558511.6700237470,-9.7932812952,0.0063685246,0.0016851010,-0.0000627316,0.0000847381,0.0002930363
558511.6800237470,-9.7908129763,-0.0029251268,0.0005929777,-0.0000410183,0.0000738874,-0.0002493434
558511.6900237470,-9.7925448903,0.0056106829,-0.0019818257,-0.0000410183,0.0000738874,-0.0000432391
558511.7000237470,-9.7920453260,-0.0017094971,-0.0003113729,-0.0000301617,0.0000738874,0.0000977796
558511.7100237469,-9.7914468553,0.0037834175,0.0009061415,-0.0000193051,0.0000738874,-0.0003903621
558511.7200237470,-9.7915940933,0.0018000812,0.0006014838,-0.0000410183,0.0000738874,0.0003906647
558511.7300237470,-9.7911422729,-0.0014000666,-0.0016914336,0.0000024082,0.0000955887,-0.0006073140
558511.7400237470,-9.7926833693,0.0060667357,0.0000022792,-0.0000627316,0.0000630368,0.0004774454
558511.7500237470,-9.7911126632,-0.0039941352,0.0007475367,-0.0000301617,0.0000630368,-0.0005096856
558511.7600237470,-9.7923764001,0.0068303431,0.0006101295,-0.0000410183,0.0000955887,0.0002062556
558511.7700237470,-9.7917434601,-0.0033854871,-0.0015347557,-0.0000084485,0.0000738874,-0.0001300198
558511.7800237470,-9.7916035546,0.0048504807,0.0009078985,-0.0000193051,0.0000630368,-0.0001625626
558511.7900237470,-9.7921945709,0.0008820714,0.0013686890,-0.0000410183,0.0000847381,0.0001845604
558511.8000237470,-9.7906941295,0.0016522087,-0.0013888252,-0.0000301617,0.0000738874,-0.0004662952
558511.8100237470,-9.7923695191,0.0022551605,-0.0007645510,-0.0000627316,0.0000738874,0.0004123598
558511.8200237470,-9.7920470820,-0.0009469319,-0.0001585143,-0.0000301617,0.0000738874,-0.0005422284
558511.8300237471,-9.7929780962,0.0059124027,0.0012248249,-0.0000301617,0.0000630368,0.0004123598
558511.8400237469,-9.7912827374,-0.0026213239,-0.0007756644,-0.0000084485,0.0000847381,-0.0004879904
558511.8500237470,-9.7928432153,0.0060665271,-0.0009115107,-0.0000193051,0.0000738874,0.0002496459
558511.8600237470,-9.7911199169,-0.0033837498,0.0001377766,-0.0000410183,0.0000738874,-0.0002601910
558511.8700237470,-9.7922190485,0.0062207218,0.0009136012,-0.0000627316,0.0000847381,0.0000001513
558511.8800237470,-9.7920411042,-0.0021672167,-0.0000065626,-0.0000410183,0.0000630368,0.0000109989
558511.8900237470,-9.7926835987,0.0036268605,-0.0012189150,-0.0000301617,0.0000738874,-0.0003035813
558511.9000237470,-9.7915965590,0.0014952357,0.0001438151,-0.0000301617,0.0000738874,0.0003364267
558511.9100237470,-9.7918901820,0.0001208957,0.0009082735,0.0000024082,0.0000847381,-0.0005422284
558511.9200237470,-9.7928329870,0.0046935071,-0.0003020994,-0.0000193051,0.0000521862,0.0004665978
558511.9300237470,-9.7906671862,-0.0033815962,-0.0004760686,-0.0000410183,0.0000847381,-0.0005747712
558511.9400237470,-9.7925386257,0.0074402421,-0.0003033813,-0.0000627316,0.0000738874,0.0003364267
558511.9500237470,-9.7908105967,-0.0035352345,0.0005926987,-0.0000410183,0.0000738874,-0.0002927337
558511.9600237469,-9.7926784666,0.0063714424,0.0007649675,-0.0000193051,0.0000847381,-0.0000540867
558511.9700237470,-9.7912856260,-0.0009437361,-0.0003173678,-0.0000193051,0.0000738874,0.0001845604
558511.9800237470,-9.7914470273,0.0019535112,-0.0000097542,0.0000024082,0.0000630368,-0.0004771428
558511.9900237470,-9.7917489218,0.0033245168,0.0010609794,-0.0000518750,0.0000847381,0.0004232074
558512.0000237470,-9.7926615581,-0.0017116510,-0.0010688467,-0.0000193051,0.0000738874,-0.0006181615
558512.0100237470,-9.7926858063,0.0060668746,-0.0003027404,-0.0000627316,0.0000738874,0.0004123598
558512.0200237470,-9.7917300565,-0.0033862509,0.0001428516,-0.0000301617,0.0000738874,-0.0004337525
558512.0300237470,-9.7923745006,0.0075926999,0.0012205173,-0.0000301617,0.0000738874,0.0001737128
558512.0400237470,-9.7917373676,-0.0033858343,-0.0007722070,0.0000024082,0.0000738874,-0.0001191722
558512.0500237470,-9.7925328199,0.0043900510,-0.0010673252,-0.0000301617,0.0000955887,-0.0001517150
558512.0600237470,-9.7918999014,0.0004264356,-0.0001591553,-0.0000410183,0.0000413356,0.0002279508
558512.0700237470,-9.7918961598,0.0013411805,0.0007563218,-0.0000193051,0.0000738874,-0.0005096856
558512.0800237471,-9.7926725748,0.0042362044,0.0004589714,-0.0000735882,0.0000738874,0.0004557502
558512.0900237469,-9.7911278229,-0.0032308063,-0.0007772121,-0.0000301617,0.0001064393,-0.0005964664
558512.1000237470,-9.7936045566,0.0072832688,-0.0001420601,-0.0000301617,0.0000738874,0.0004123598
558512.1100237470,-9.7906622262,-0.0024669208,0.0005919182,-0.0000301617,0.0000738874,-0.0004012097
558512.1200237470,-9.7934485096,0.0057587638,-0.0004490459,-0.0000518750,0.0000630368,0.0000977796
558512.1300237470,-9.7911326682,-0.0029255441,-0.0012346019,-0.0000301617,0.0000847381,-0.0000540867
558512.1400237470,-9.7914492349,0.0043935252,0.0009064205,-0.0000301617,0.0000738874,-0.0002818861
558512.1500237470,-9.7925074606,0.0019487176,0.0009141855,-0.0000518750,0.0000847381,0.0003255791
558512.1600237470,-9.7919121151,0.0001221456,-0.0018369021,-0.0000193051,0.0000847381,-0.0005747712
558512.1700237470,-9.7926841936,0.0037793875,-0.0012188453,-0.0000301617,0.0000087837,0.0005099882
558512.1800237470,-9.7908110769,-0.0021627700,0.0012033655,-0.0000084485,0.0000955887,-0.0005530760
558512.1900237470,-9.7928278836,0.0071331045,0.0015291338,-0.0000518750,0.0000847381,0.0003038839
558512.2000237470,-9.7909752880,-0.0032301810,-0.0007784809,-0.0000301617,0.0001498418,-0.0003035813
558512.2100237469,-9.7928451434,0.0049991858,-0.0016745477,-0.0000518750,0.0000630368,0.0000109989
558512.2200237470,-9.7914236535,-0.0021651322,0.0009034210,-0.0000410183,0.0000087837,0.0000435417
558512.2300237470,-9.7922015092,0.0048472852,0.0024380710,-0.0000084485,0.0000630368,-0.0003361241
558512.2400237470,-9.7922061324,0.0010352233,-0.0000038290,-0.0000410183,0.0000847381,0.0003581219
558512.2500237470,-9.7913002194,-0.0006379184,-0.0019948356,0.0000024082,0.0001064393,-0.0005422284
558512.2600237470,-9.7922173498,0.0048481879,0.0004554442,-0.0000410183,0.0001064393,0.0004232074
558512.2700237470,-9.7914150666,-0.0015556495,0.0022762878,-0.0000301617,0.0000630368,-0.0005313808
558512.2800237470,-9.7928353667,0.0053036147,-0.0003018204,-0.0000410183,0.0000304849,0.0003472743
558512.2900237470,-9.7905274600,-0.0035327341,-0.0021550144,-0.0000193051,0.0000630368,-0.0003361241
558512.3000237470,-9.7934417074,0.0068258273,0.0009240302,-0.0000193051,0.0000738874,0.0000760844
558512.3100237470,-9.7912626177,-0.0024699774,0.0018170713,-0.0000193051,0.0001498418,0.0000001513
558512.3200237470,-9.7922210913,0.0039334430,-0.0004600329,-0.0000193051,0.0001172899,-0.0002927337
558512.3300237471,-9.7922152855,0.0008832519,-0.0012239768,-0.0000627316,-0.0000129176,0.0002930363
558512.3400237469,-9.7918962172,0.0007312117,0.0004510233,-0.0000301617,0.0000196343,-0.0005096856
558512.3500237470,-9.7922082826,0.0040852061,0.0012176442,-0.0000410183,0.0000955887,0.0004232074
558512.3600237470,-9.7914339965,-0.0020120498,-0.0003165873,-0.0000301617,0.0001606924,-0.0005530760
558512.3700237470,-9.7931495323,0.0057603616,-0.0012141322,-0.0000410183,0.0000738874,0.0003689695
558512.3800237470,-9.7917323789,-0.0021661745,0.0004484292,-0.0000084485,-0.0000237682,-0.0003795145
558512.3900237470,-9.7934313358,0.0069777293,0.0022966877,-0.0000518750,0.0000304849,0.0000869320
558512.4000237470,-9.7918844622,-0.0038442486,-0.0003136182,-0.0000518750,0.0001715430,-0.0000323915
558512.4100237470,-9.7919361125,0.0040883315,-0.0029026568,-0.0000301617,0.0001172899,-0.0003144289
558512.4200237470,-9.7925117971,0.0011864996,-0.0000012218,-0.0000627316,-0.0000129176,0.0003798171
558512.4300237470,-9.7920397423,-0.0006423642,0.0009091935,-0.0000084485,0.0000304849,-0.0006290091
558512.4400237470,-9.7926736500,0.0057611958,0.0010697079,-0.0000301617,0.0001172899,0.0004991406
558512.4500237470,-9.7908209683,-0.0036871365,-0.0007799589,-0.0000084485,0.0001606924,-0.0005205332
558512.4600237469,-9.7929992623,0.0075910321,-0.0006045248,-0.0000301617,0.0000413356,0.0002604935
558512.4700237470,-9.7909649450,-0.0033832634,0.0004415274,-0.0000410183,-0.0000129176,-0.0001951054
558512.4800237470,-9.7932820909,0.0043861608,0.0006166258,-0.0000518750,0.0000847381,-0.0001408674
558512.4900237470,-9.7914416731,0.0005807689,-0.0000103820,-0.0000518750,0.0001932443,0.0002062556
558512.5000237470,-9.7912969581,0.0016492909,-0.0004686917,-0.0000193051,0.0000738874,-0.0004771428
558512.5100237470,-9.7923621794,0.0025597283,0.0003031568,-0.0000193051,-0.0000780213,0.0004340550
558512.5200237470,-9.7912814903,-0.0023164089,-0.0004705054,-0.0000084485,0.0001389912,-0.0005205332
558512.5300237470,-9.7923819837,0.0057632102,-0.0006104369,-0.0000518750,0.0001715430,0.0003581219
558512.5400237470,-9.7914351863,-0.0017069960,-0.0003164478,-0.0000301617,0.0000738874,-0.0004337525
558512.5500237470,-9.7931330681,0.0059119163,0.0009210742,-0.0000518750,-0.0000237682,0.0002171032
558512.5600237470,-9.7915738948,-0.0036908184,0.0004464629,-0.0000084485,0.0000738874,-0.0002493434
558512.5700237470,-9.7922379497,0.0060693059,-0.0015266246,-0.0000410183,0.0001281405,0.0000109989
558512.5800237471,-9.7915810051,-0.0015555110,0.0005999492,-0.0000193051,0.0001064393,0.0000109989
558512.5900237469,-9.7922017099,0.0027123944,0.0013695261,-0.0000301617,-0.0000020669,-0.0002818861
558512.6000237470,-9.7917418115,0.0011892094,0.0009074931,-0.0000518750,0.0000087837,0.0002930363
558512.6100237470,-9.7922122822,0.0004256017,-0.0010716763,-0.0000084485,0.0001498418,-0.0005096856
558512.6200237470,-9.7923736262,0.0039328177,-0.0004587642,-0.0000627316,0.0001498418,0.0004449026
558512.6300237470,-9.7906621688,-0.0018569520,0.0008972168,-0.0000084485,0.0000087837,-0.0005530760
558512.6400237470,-9.7935961131,0.0063678296,0.0004675604,-0.0000301617,-0.0000129176,0.0003906647
558512.6500237470,-9.7899026982,-0.0035310662,-0.0003299723,0.0000024082,0.0001606924,-0.0003686669
558512.6600237470,-9.7922257359,0.0063735959,0.0001511222,-0.0000627316,0.0001498418,0.0000109989
558512.6700237470,-9.7918831864,-0.0032343493,0.0001441901,-0.0000410183,0.0000304849,0.0000435417
558512.6800237470,-9.7925267847,0.0037797350,-0.0006100750,-0.0000193051,-0.0000237682,-0.0003686669
558512.6900237480,-9.7923633979,0.0025597977,0.0001506470,-0.0000627316,0.0001064393,0.0003798171
558512.7000237480,-9.7912765302,-0.0014017335,0.0005974815,-0.0000084485,0.0001606924,-0.0005747712
558512.7100237480,-9.7929867117,0.0049979356,-0.0003006912,-0.0000410183,0.0000630368,0.0004449026
558512.7200237480,-9.7912857407,-0.0021636737,-0.0009279649,-0.0000084485,-0.0000237682,-0.0004988380
558512.7300237480,-9.7931439200,0.0071324789,0.0001590834,-0.0000518750,0.0000738874,0.0002171032
558512.7400237480,-9.7909655686,-0.0035357209,0.0002889479,-0.0000301617,0.0001389912,-0.0001625626
558512.7500237480,-9.7920587223,0.0048484660,0.0012167242,-0.0000410183,0.0001389912,-0.0001517150
558512.7600237480,-9.7925046007,-0.0000338546,0.0003032397,-0.0000301617,0.0000196343,0.0001845604
558512.7700237480,-9.7923689529,0.0017976492,-0.0009172700,-0.0000084485,0.0000087837,-0.0004229049
558512.7800237481,-9.7925171800,0.0022542575,-0.0001532433,-0.0000301617,0.0001064393,0.0003581219
558512.7900237479,-9.7908249607,-0.0007895417,0.0001364250,-0.0000301617,0.0001606924,-0.0005096856
558512.8000237480,-9.7919134411,0.0054594767,0.0006056955,-0.0000410183,0.0000630368,0.0004232074
558512.8100237480,-9.7911313350,-0.0017056760,-0.0004714951,-0.0000084485,0.0000196343,-0.0005205332
558512.8200237480,-9.7932923191,0.0057591808,0.0000072146,-0.0000518750,-0.0000020669,0.0003147315
558512.8300237480,-9.7915727623,-0.0046058410,0.0001410248,-0.0000193051,0.0001715430,-0.0003035813
558512.8400237480,-9.7917644757,0.0063752635,0.0006048453,-0.0000518750,0.0001498418,0.0000109989
558512.8500237480,-9.7920422367,-0.0012521941,0.0002988754,-0.0000193051,0.0000304849,0.0000218465
558512.8600237480,-9.7928270952,0.0025582691,-0.0006080955,-0.0000301617,-0.0000129176,-0.0003361241
558512.8700237480,-9.7923568538,0.0008820017,0.0001498797,-0.0000627316,0.0001064393,0.0003581219
558512.8800237480,-9.7909847206,0.0001252029,-0.0003194170,-0.0000193051,0.0001498418,-0.0005639236
558512.8900237480,-9.7922227900,0.0053059770,-0.0000018758,-0.0000518750,0.0001064393,0.0004449026
558512.9000237481,-9.7912748888,-0.0033842362,-0.0001659741,-0.0000193051,0.0000087837,-0.0005530760
558512.9100237479,-9.7935996826,0.0072829911,0.0004679789,-0.0000301617,0.0000087837,0.0003255791
558512.9200237480,-9.7903548054,-0.0033807623,0.0004364525,-0.0000193051,0.0001606924,-0.0002601910
558512.9300237480,-9.7920726635,0.0056117255,-0.0001555148,-0.0000627316,0.0001389912,-0.0000757819
558512.9400237480,-9.7920447311,-0.0018620240,-0.0003114426,-0.0000410183,0.0000738874,0.0001086272
558512.9500237480,-9.7923664012,0.0030174479,-0.0000016534,-0.0000410183,-0.0000020669,-0.0003686669
558512.9600237480,-9.7919106672,0.0025619513,-0.0004631982,-0.0000410183,0.0000413356,0.0003472743
558512.9700237480,-9.7909702132,-0.0010955680,0.0009001030,0.0000024082,0.0001498418,-0.0005639236
558512.9800237480,-9.7934436642,0.0054535017,0.0000083438,-0.0000410183,0.0001281405,0.0004340550
558512.9900237480,-9.7908306017,-0.0024666434,-0.0013894399,-0.0000193051,0.0000304849,-0.0004988380
558513.0000237480,-9.7931414543,0.0074373244,0.0006167522,-0.0000627316,-0.0000129176,0.0002713411
558513.0100237480,-9.7906489660,-0.0039926066,0.0015062792,-0.0000301617,0.0001172899,-0.0002059530
558513.0200237480,-9.7917669414,0.0060704179,0.0001471765,-0.0000410183,0.0001498418,-0.0000866295
558513.0300237481,-9.7919037003,-0.0010982781,-0.0013799309,-0.0000193051,0.0000955887,0.0001303224
558513.0400237479,-9.7925141481,0.0021015917,0.0001517065,0.0000024082,-0.0000020669,-0.0003795145
558513.0500237480,-9.7918978872,0.0024087300,0.0010618296,-0.0000410183,0.0000196343,0.0003364267
558513.0600237480,-9.7917461480,0.0004269914,-0.0000079143,-0.0000193051,0.0001715430,-0.0005422284
558513.0700237480,-9.7923748734,0.0036279028,-0.0007639232,-0.0000518750,0.0001498418,0.0004232074
558513.0800237480,-9.7915846893,-0.0018602870,-0.0000102293,-0.0000518750,0.0000087837,-0.0005096856
558513.0900237480,-9.7931275992,0.0057591117,0.0015310434,-0.0000410183,-0.0000237682,0.0003147315
558513.1000237480,-9.7909692528,-0.0038404970,-0.0003212306,-0.0000301617,0.0001389912,-0.0003035813
558513.1100237480,-9.7914649035,0.0062243343,-0.0001603107,-0.0000518750,0.0001606924,0.0000326941
558513.1200237480,-9.7921930442,-0.0023203689,-0.0000053637,-0.0000084485,0.0000196343,-0.0000323915
558513.1300237480,-9.7925218533,0.0043894260,0.0003052626,-0.0000301617,-0.0000020669,-0.0002493434
558513.1400237480,-9.7915966163,0.0008852669,-0.0001614835,-0.0000735882,0.0000847381,0.0002496459
558513.1500237481,-9.7917582470,0.0013426390,-0.0010750640,0.0000024082,0.0001932443,-0.0004771428
558513.1600237479,-9.7916114892,0.0046984398,-0.0001597396,-0.0000410183,0.0000630368,0.0004557502
558513.1700237480,-9.7924950247,-0.0018643164,0.0006074221,-0.0000084485,-0.0000563201,-0.0006181615
558513.1800237480,-9.7925278025,0.0059146952,0.0003059602,-0.0000518750,0.0001281405,0.0004123598
558513.1900237480,-9.7911266330,-0.0035358601,-0.0007773517,-0.0000410183,0.0001715430,-0.0004120573
558513.2000237480,-9.7928431293,0.0069814803,-0.0004535628,-0.0000627316,0.0000304849,0.0001086272
558513.2100237480,-9.7915755935,-0.0023182844,0.0009046199,-0.0000301617,-0.0000237682,-0.0000649343
558513.2200237480,-9.7925194450,0.0040843028,0.0004576329,-0.0000301617,0.0000847381,-0.0002059530
558513.2300237480,-9.7917510220,0.0004272692,-0.0006179533,-0.0000193051,0.0001281405,0.0002387983
558513.2400237480,-9.7919095347,0.0016469287,-0.0007686363,0.0000024082,0.0001172899,-0.0004879904
558513.2500237480,-9.7923590615,0.0033220157,0.0010660544,-0.0000301617,-0.0000020669,0.0003798171
558513.2600237480,-9.7918896444,-0.0006416000,0.0006029052,-0.0000518750,0.0000304849,-0.0005313808
558513.2700237480,-9.7923717554,0.0043901902,-0.0000010256,-0.0000735882,0.0001172899,0.0003798171
558513.2800237481,-9.7908141948,-0.0029250574,0.0004404680,-0.0000193051,0.0001715430,-0.0004229049
558513.2900237479,-9.7932946701,0.0066742728,0.0001601429,-0.0000193051,-0.0000237682,0.0002062556
558513.3000237480,-9.7917318700,-0.0032336546,-0.0000095884,0.0000024082,0.0000196343,-0.0001625626
558513.3100237480,-9.7922240659,0.0046960776,-0.0004596841,-0.0000301617,0.0001389912,-0.0001408674
558513.3200237480,-9.7915899862,0.0001224240,0.0002956970,-0.0000410183,0.0001606924,0.0001628652
558513.3300237480,-9.7919003529,0.0021038845,0.0006041608,-0.0000410183,-0.0000346188,-0.0004229049
558513.3400237480,-9.7925146857,0.0028640874,0.0004570748,-0.0000735882,0.0000087837,0.0004232074
558513.3500237480,-9.7912850884,-0.0017062318,-0.0006227361,-0.0000193051,0.0002040949,-0.0005856188
558513.3600237480,-9.7923789231,0.0059155288,-0.0001528378,-0.0000410183,0.0000955887,0.0004557502
558513.3700237480,-9.7915769267,-0.0035381526,0.0001415131,0.0000024082,-0.0000346188,-0.0004879904
558513.3800237480,-9.7929847263,0.0066752456,0.0007676444,-0.0000301617,0.0000738874,0.0001628652
558513.3900237480,-9.7911266044,-0.0032308757,-0.0006247024,-0.0000410183,0.0001715430,-0.0000866295
558513.4000237481,-9.7928391082,0.0043888699,-0.0012172975,-0.0000410183,0.0000847381,-0.0002818861
558513.4100237479,-9.7928137776,0.0016425521,0.0006115640,-0.0000518750,-0.0000129176,0.0003581219
558513.4200237480,-9.7915814567,0.0001219379,0.0013632653,-0.0000193051,0.0000413356,-0.0005639236
558513.4300237480,-9.7925242617,0.0046945493,0.0001528924,-0.0000301617,0.0001498418,0.0004665978
558513.4400237480,-9.7903669044,-0.0024651147,-0.0006306973,-0.0000193051,0.0001172899,-0.0005422284
558513.4500237480,-9.7932994868,0.0072845194,-0.0001445976,-0.0000301617,-0.0000237682,0.0002930363
558513.4600237480,-9.7908166318,-0.0029249185,0.0001354484,-0.0000301617,0.0000630368,-0.0003035813
558513.4700237480,-9.7926808750,0.0066765656,0.0006125972,-0.0000518750,0.0001172899,0.0000109989
558513.4800237480,-9.7909763918,-0.0020101740,-0.0003203936,-0.0000518750,0.0001172899,0.0000218465
558513.4900237480,-9.7925219680,0.0031694884,-0.0003053345,-0.0000301617,-0.0000237682,-0.0002601910
558513.5000237480,-9.7923592048,0.0017970937,0.0003028080,-0.0000301617,0.0000304849,0.0003038839
558513.5100237480,-9.7914301976,-0.0004873361,0.0009041883,0.0000024082,0.0001823937,-0.0005639236
558513.5200237480,-9.7920690940,0.0046965640,-0.0001559334,-0.0000301617,0.0001064393,0.0005099882
558513.5300237481,-9.7911235438,-0.0030785571,-0.0001671034,-0.0000301617,-0.0000563201,-0.0005964664
558513.5400237479,-9.7936002488,0.0077405024,0.0006206979,-0.0000518750,0.0000738874,0.0003364267
558513.5500237480,-9.7905037994,-0.0046015335,0.0002846534,-0.0000410183,0.0001932443,-0.0002384958
558513.5600237480,-9.7925278598,0.0053047264,0.0000006616,-0.0000193051,0.0000738874,-0.0000866295
558513.5700237480,-9.7918963606,-0.0007937103,-0.0003122231,-0.0000193051,-0.0000454694,0.0001845604
558513.5800237480,-9.7922083973,0.0028652685,0.0006070471,-0.0000193051,0.0001172899,-0.0004662952
558513.5900237480,-9.7922059890,0.0025601453,0.0007594173,-0.0000518750,0.0001498418,0.0004123598
558513.6000237480,-9.7917488430,-0.0023177292,-0.0016867772,-0.0000410183,0.0000196343,-0.0005856188
558513.6100237480,-9.7934515415,0.0059114296,-0.0007539957,-0.0000518750,-0.0000020669,0.0004340550
558513.6200237480,-9.7906640683,-0.0026193088,0.0002868290,-0.0000193051,0.0001715430,-0.0004337525
558513.6300237480,-9.7922172637,0.0057631411,0.0009133920,-0.0000301617,0.0001498418,0.0001845604
558513.6400237480,-9.7925006657,-0.0035414182,-0.0009184428,-0.0000193051,-0.0000671707,-0.0001408674
558513.6500237481,-9.7923826360,0.0053057683,-0.0009156657,-0.0000193051,0.0000738874,-0.0001191722
558513.6600237479,-9.7914210445,-0.0003353647,0.0021243361,-0.0000301617,0.0001932443,0.0001194748
558513.6700237480,-9.7909997656,0.0021084694,-0.0012335687,-0.0000518750,0.0000738874,-0.0004012097
558513.6800237480,-9.7931315701,0.0024044916,-0.0006056278,-0.0000518750,-0.0000454694,0.0003906647
558513.6900237480,-9.7909768720,-0.0006377095,0.0002902733,-0.0000193051,0.0001064393,-0.0005530760
558513.7000237480,-9.7925168933,0.0053041015,0.0013732495,-0.0000301617,0.0001281405,0.0004232074
558513.7100237480,-9.7912864216,-0.0029261000,-0.0013858429,-0.0000084485,0.0000630368,-0.0004988380
558513.7200237480,-9.7930005955,0.0063711639,-0.0013676317,-0.0000301617,0.0000087837,0.0002713411
558513.7300237480,-9.7906555674,-0.0029247793,0.0012017480,-0.0000410183,0.0001606924,-0.0002493434
558513.7400237480,-9.7916070381,0.0066805954,0.0013662648,-0.0000627316,0.0001172899,0.0000001513
558513.7500237480,-9.7917452162,-0.0026229220,-0.0013818972,-0.0000301617,-0.0000454694,0.0000218465
558513.7600237490,-9.7928367859,0.0031687934,-0.0015228751,-0.0000193051,0.0000847381,-0.0002601910
558513.7700237490,-9.7914318963,0.0008851978,0.0013623454,-0.0000301617,0.0001498418,0.0002713411
558513.7800237490,-9.7914355519,0.0008854061,0.0009048161,0.0000024082,0.0000196343,-0.0005205332
558513.7900237490,-9.7931406085,0.0034724578,-0.0012151786,-0.0000410183,0.0000304849,0.0004449026
558513.8000237490,-9.7906792853,-0.0024659487,-0.0015432184,-0.0000301617,0.0001606924,-0.0005530760
558513.8100237490,-9.7926766245,0.0065238304,0.0010700567,-0.0000410183,0.0000304849,0.0003472743
558513.8200237490,-9.7914261479,-0.0027749621,0.0002931029,-0.0000410183,0.0000738874,-0.0003361241
558513.8300237490,-9.7920768852,0.0060694451,-0.0004603251,-0.0000410183,0.0001172899,0.0000435417
558513.8400237490,-9.7912881777,-0.0021635348,-0.0012329844,-0.0000084485,0.0000196343,0.0000218465
558513.8500237491,-9.7922107483,0.0037803606,0.0007599754,-0.0000084485,0.0000955887,-0.0003361241
558513.8600237489,-9.7931169480,0.0024036584,0.0012244893,-0.0000518750,0.0000738874,0.0003038839
558513.8700237490,-9.7912886293,-0.0004860859,-0.0004696683,-0.0000193051,0.0000738874,-0.0005205332
558513.8800237490,-9.7919208382,0.0045449401,-0.0007673109,-0.0000518750,0.0000738874,0.0004340550
558513.8900237490,-9.7914284989,-0.0018598701,0.0004460312,-0.0000301617,0.0000738874,-0.0005313808
558513.9000237490,-9.7926742162,0.0062187071,0.0012224270,-0.0000301617,0.0000738874,0.0003581219
558513.9100237490,-9.7909777250,-0.0032300421,-0.0010835004,0.0000132648,0.0000955887,-0.0003903621
558513.9200237490,-9.7932983256,0.0066744812,-0.0002973864,-0.0000301617,0.0000738874,0.0001194748
558513.9300237490,-9.7921869517,-0.0023207161,0.0007571851,-0.0000627316,0.0000847381,-0.0000649343
558513.9400237490,-9.7919055925,0.0046965643,0.0012153857,-0.0000410183,0.0000738874,-0.0002818861
558513.9500237490,-9.7912915465,0.0008865175,-0.0001640210,-0.0000518750,0.0000738874,0.0003364267
558513.9600237490,-9.7912880343,-0.0006386128,-0.0004697380,-0.0000084485,0.0000847381,-0.0005205332
558513.9700237490,-9.7926779577,0.0053039623,0.0003069499,-0.0000301617,0.0000738874,0.0004449026
558513.9800237491,-9.7911234291,-0.0018586195,0.0004434937,-0.0000193051,0.0000847381,-0.0005639236
558513.9900237489,-9.7925247706,0.0057620294,0.0006109099,-0.0000410183,0.0000738874,0.0003255791
558514.0000237490,-9.7912773545,-0.0036890817,-0.0006236429,-0.0000301617,0.0000630368,-0.0003035813
558514.0100237490,-9.7926851541,0.0065243165,0.0000024884,-0.0000518750,0.0000955887,0.0000543893
558514.0200237490,-9.7917347299,-0.0012510824,0.0006013575,-0.0000518750,0.0000630368,-0.0000215439
558514.0300237490,-9.7926744456,0.0037788320,0.0000012328,-0.0000084485,0.0000847381,-0.0002601910
558514.0400237490,-9.7919054277,-0.0000307285,-0.0010744231,-0.0000410183,0.0000847381,0.0003038839
558514.0500237490,-9.7914374226,0.0004280337,0.0004470775,-0.0000084485,0.0000630368,-0.0005205332
558514.0600237490,-9.7931294986,0.0049967548,0.0009206556,-0.0000518750,0.0000738874,0.0004449026
558514.0700237490,-9.7912796482,-0.0021640209,-0.0001654161,-0.0000301617,0.0001064393,-0.0005856188
558514.0800237490,-9.7926846452,0.0054568364,-0.0004555291,-0.0000735882,0.0000413356,0.0003906647
558514.0900237490,-9.7908172268,-0.0027723916,0.0001355182,-0.0000193051,0.0000738874,-0.0003252765
558514.1000237491,-9.7922256212,0.0075935335,0.0007617193,-0.0000301617,0.0000738874,0.0000326941
558514.1100237489,-9.7915774643,-0.0027756569,0.0004468814,-0.0000193051,0.0000413356,0.0000109989
558514.1200237490,-9.7922205824,0.0028659629,-0.0009180505,-0.0000193051,0.0000955887,-0.0003361241
558514.1300237490,-9.7917520398,0.0025622294,0.0002980818,-0.0000518750,0.0000630368,0.0003472743
558514.1400237490,-9.7917364573,-0.0001835329,0.0009068653,-0.0000301617,0.0000738874,-0.0005530760
558514.1500237490,-9.7923699133,0.0045425782,0.0003040636,-0.0000410183,0.0000955887,0.0004340550
558514.1600237490,-9.7905188444,-0.0026182669,-0.0006294983,-0.0000193051,0.0000413356,-0.0005313808
558514.1700237490,-9.7931409454,0.0063698443,0.0001587346,-0.0000301617,0.0000738874,0.0003364267
558514.1800237490,-9.7902040839,-0.0032275407,0.0002827437,0.0000024082,0.0000738874,-0.0003252765
558514.1900237490,-9.7923752102,0.0065252893,0.0006099900,-0.0000410183,0.0000630368,0.0000543893
558514.2000237490,-9.7920387245,-0.0027773244,-0.0000068417,-0.0000410183,0.0000738874,0.0000001513
558514.2100237490,-9.7923765721,0.0050004367,-0.0003057661,-0.0000410183,0.0000738874,-0.0003035813
558514.2200237490,-9.7915880868,0.0008847808,0.0009060848,-0.0000627316,0.0000630368,0.0003147315
558514.2300237491,-9.7915870690,-0.0012501794,-0.0000099503,0.0000024082,0.0001064393,-0.0005747712
558514.2400237489,-9.7932935663,0.0054542658,-0.0002979444,-0.0000193051,0.0000413356,0.0005099882
558514.2500237490,-9.7911265470,-0.0026209069,-0.0003194038,-0.0000084485,0.0000847381,-0.0005747712
558514.2600237490,-9.7929792573,0.0065224410,0.0013776137,-0.0000518750,0.0000738874,0.0002930363
558514.2700237490,-9.7911145053,-0.0041465233,0.0004424474,-0.0000410183,0.0000847381,-0.0002384958
558514.2800237490,-9.7926900855,0.0059146254,-0.0009128492,-0.0000518750,0.0000630368,-0.0000215439
558514.2900237490,-9.7920482719,-0.0006418781,-0.0001583748,-0.0000301617,0.0000847381,0.0000326941
558514.3000237490,-9.7920558337,0.0031708782,0.0007584276,-0.0000193051,0.0000630368,-0.0003035813
558514.3100237490,-9.7915917136,0.0011899736,0.0006012048,-0.0000301617,0.0000955887,0.0002604935
558514.3200237490,-9.7917552151,0.0011899732,-0.0007701143,-0.0000084485,0.0000847381,-0.0004662952
558514.3300237490,-9.7922210913,0.0039334430,-0.0004600329,-0.0000627316,0.0000738874,0.0004123598
558514.3400237490,-9.7912758780,-0.0009442916,0.0009027103,-0.0000518750,0.0000847381,-0.0005639236
558514.3500237491,-9.7931289037,0.0048442279,0.0009205859,-0.0000518750,0.0000738874,0.0003906647
558514.3600237489,-9.7906708131,-0.0030764035,-0.0007809486,-0.0000193051,0.0000738874,-0.0004337525
558514.3700237490,-9.7925355938,0.0072875763,0.0000015685,-0.0000301617,0.0000847381,0.0002062556
558514.3800237490,-9.7914195178,-0.0035378050,0.0007502834,-0.0000084485,0.0000738874,-0.0002059530
558514.3900237490,-9.7925217673,0.0053043792,0.0007632104,-0.0000193051,0.0000847381,-0.0000757819
558514.4000237490,-9.7922020253,-0.0006424339,-0.0003096159,-0.0000518750,0.0000847381,0.0000977796
558514.4100237490,-9.7919220853,0.0042400252,-0.0010724699,-0.0000410183,0.0000738874,-0.0003469717
558514.4200237490,-9.7922005774,0.0017973718,0.0010640881,-0.0000627316,0.0000413356,0.0003689695
558514.4300237490,-9.7911239093,-0.0004861550,0.0010541606,-0.0000084485,0.0001064393,-0.0005964664
558514.4400237490,-9.7919225369,0.0059174741,-0.0003091538,-0.0000301617,0.0000521862,0.0004774454
558514.4500237490,-9.7912779494,-0.0035365548,-0.0006235732,-0.0000084485,0.0000847381,-0.0005530760
558514.4600237490,-9.7925289350,0.0068297178,0.0006113982,-0.0000301617,0.0000738874,0.0002713411
558514.4700237490,-9.7908124388,-0.0036876225,0.0002876094,-0.0000518750,0.0000847381,-0.0002059530
558514.4800237491,-9.7929896863,0.0057605702,-0.0003003424,-0.0000410183,0.0000847381,-0.0001083246
558514.4900237489,-9.7926699156,0.0001187415,-0.0012205194,-0.0000627316,0.0000630368,0.0001954080
558514.5000237490,-9.7919010625,0.0010364738,-0.0000063665,-0.0000084485,0.0000630368,-0.0004988380
558514.5100237490,-9.7917488645,0.0039344856,0.0013662780,-0.0000301617,0.0000955887,0.0004340550
558514.5200237490,-9.7909806422,-0.0018574387,-0.0007778531,-0.0000084485,0.0000738874,-0.0005747712
558514.5300237490,-9.7932983543,0.0063694968,-0.0004500357,-0.0000410183,0.0000738874,0.0003689695
558514.5400237490,-9.7906646919,-0.0027717663,0.0001342495,-0.0000518750,0.0000847381,-0.0004012097
558514.5500237490,-9.7934399800,0.0057582777,0.0006185224,-0.0000518750,0.0000738874,0.0001194748
558514.5600237490,-9.7917336260,-0.0024710894,0.0001432701,-0.0000193051,0.0000847381,-0.0000432391
558514.5700237490,-9.7916175531,0.0050037714,-0.0007696391,-0.0000301617,0.0000847381,-0.0002493434
558514.5800237490,-9.7926637658,0.0007283631,-0.0001526721,-0.0000301617,0.0000413356,0.0002713411
558514.5900237490,-9.7915887677,0.0001223546,0.0004482068,0.0000024082,0.0000955887,-0.0005096856
558514.6000237491,-9.7932863700,0.0042339116,0.0000065170,-0.0000518750,0.0000738874,0.0004123598
558514.6100237489,-9.7909812085,-0.0013999274,-0.0006251340,-0.0000410183,0.0000630368,-0.0005422284
558514.6200237490,-9.7928183649,0.0046926738,0.0015280177,-0.0000410183,0.0000847381,0.0003906647
558514.6300237490,-9.7905127805,-0.0029235985,-0.0000195988,-0.0000301617,0.0000738874,-0.0004337525
558514.6400237490,-9.7925459654,0.0071356744,-0.0013710891,-0.0000193051,0.0000630368,0.0001954080
558514.6500237490,-9.7914304270,-0.0029272113,-0.0003170059,-0.0000084485,0.0000738874,-0.0001734102
558514.6600237490,-9.7919097856,0.0054592684,0.0010632247,-0.0000410183,0.0000738874,-0.0000757819
558514.6700237490,-9.7915797293,-0.0009456116,0.0010577575,-0.0000410183,0.0000955887,0.0001303224
558514.6800237490,-9.7923707376,0.0022552300,-0.0009170608,-0.0000518750,0.0000738874,-0.0003903621
558514.6900237490,-9.7920722693,0.0033243078,-0.0012241295,-0.0000410183,0.0000630368,0.0003906647
558514.7000237490,-9.7914272517,-0.0015549551,0.0007511902,-0.0000193051,0.0000738874,-0.0005856188
558514.7100237490,-9.7923680139,0.0053049351,0.0009144514,-0.0000301617,0.0000738874,0.0004449026
558514.7200237490,-9.7915890831,-0.0032324738,-0.0012309352,-0.0000084485,0.0000738874,-0.0005096856
558514.7300237491,-9.7933013002,0.0074371157,-0.0002970376,-0.0000518750,0.0000738874,0.0002496459
558514.7400237489,-9.7914213599,-0.0036901931,0.0004451941,-0.0000410183,0.0000738874,-0.0001517150
558514.7500237490,-9.7928293315,0.0046932987,0.0001554298,-0.0000518750,0.0000847381,-0.0001300198
558514.7600237490,-9.7915924232,0.0001225629,-0.0000093225,-0.0000193051,0.0000738874,0.0002171032
558514.7700237490,-9.7919077213,0.0014943323,-0.0006161963,-0.0000084485,0.0000630368,-0.0005422284
558514.7800237490,-9.7929734515,0.0034722498,0.0006136698,-0.0000301617,0.0000738874,0.0004449026
558514.7900237490,-9.7917329164,-0.0014036787,0.0007537975,-0.0000193051,0.0000955887,-0.0005639236
558514.8000237490,-9.7926882147,0.0063719979,-0.0004551106,-0.0000518750,0.0000630368,0.0003798171
558514.8100237490,-9.7903633636,-0.0036852606,-0.0007837651,-0.0000193051,0.0000847381,-0.0004012097
558514.8200237490,-9.7926821222,0.0063716507,0.0003074382,-0.0000518750,0.0000738874,0.0001194748
558514.8300237490,-9.7912741505,-0.0020118411,0.0005972025,-0.0000301617,0.0000738874,-0.0000323915
558514.8400237500,-9.7923735689,0.0045427865,-0.0001534656,-0.0000301617,0.0000847381,-0.0003035813
558514.8500237500,-9.7926625473,0.0007282936,-0.0000001623,-0.0000301617,0.0000955887,0.0003364267
558514.8600237500,-9.7921971513,-0.0006427117,0.0003004232,-0.0000084485,0.0000630368,-0.0005639236
558514.8700237500,-9.7929848123,0.0057602925,0.0003096966,-0.0000410183,0.0000738874,0.0005099882
558514.8800237500,-9.7912766736,-0.0029266555,-0.0001657649,-0.0000410183,0.0000738874,-0.0005639236
558514.8900237500,-9.7923837398,0.0065257753,-0.0004575783,-0.0000518750,0.0000630368,0.0002821887
558514.9000237500,-9.7912694486,-0.0038420253,0.0002913459,-0.0000301617,0.0000738874,-0.0002493434
558514.9100237500,-9.7926784953,0.0060664580,0.0006123182,-0.0000410183,0.0000847381,-0.0000649343
558514.9200237500,-9.7920470820,-0.0009469319,-0.0001585143,-0.0000301617,0.0000630368,0.0001411700
558514.9300237501,-9.7920577905,0.0017985526,-0.0001572587,-0.0000193051,0.0000847381,-0.0004662952
558514.9400237500,-9.7929722904,0.0028622116,0.0004608810,-0.0000518750,0.0000630368,0.0004557502
558514.9500237500,-9.7909720840,-0.0015529404,0.0004423645,-0.0000301617,0.0000738874,-0.0006181615
558514.9600237500,-9.7929901952,0.0068280503,0.0001576752,-0.0000518750,0.0000738874,0.0004449026
558514.9700237500,-9.7915733572,-0.0044533141,0.0001410946,0.0000024082,0.0000738874,-0.0004337525
558514.9800237500,-9.7931384797,0.0066746898,0.0006164034,-0.0000193051,0.0000738874,0.0001303224
558514.9900237500,-9.7914296887,-0.0015548162,0.0004461707,-0.0000301617,0.0000847381,-0.0000540867
558515.0000237500,-9.7922198154,0.0045433424,-0.0000022246,-0.0000301617,0.0000738874,-0.0002818861
558515.0100237500,-9.7922001258,0.0001199229,0.0003007720,-0.0000627316,0.0000738874,0.0003038839
558515.0200237500,-9.7909786281,0.0001248557,0.0004431318,-0.0000301617,0.0000738874,-0.0005096856
558515.0300237500,-9.7923686948,0.0045425088,0.0004565734,-0.0000410183,0.0000738874,0.0004340550
558515.0400237500,-9.7917403422,-0.0026231997,-0.0007718582,-0.0000301617,0.0000847381,-0.0005639236
558515.0500237501,-9.7928292741,0.0053032675,0.0004607284,-0.0000518750,0.0000738874,0.0003364267
558515.0600237499,-9.7911162614,-0.0033839581,0.0005953059,-0.0000193051,0.0000847381,-0.0003469717
558515.0700237500,-9.7920785553,0.0077469635,0.0001504813,-0.0000627316,0.0000847381,0.0000760844
558515.0800237500,-9.7918916299,-0.0023189100,-0.0004654304,-0.0000410183,0.0000630368,-0.0000323915
558515.0900237500,-9.7923670248,0.0028649904,-0.0001542330,-0.0000301617,0.0000738874,-0.0002927337
558515.1000237500,-9.7918931853,0.0005785459,0.0007559730,-0.0000410183,0.0000847381,0.0003038839
558515.1100237500,-9.7917545055,0.0022573839,-0.0001595869,0.0000024082,0.0000630368,-0.0005530760
558515.1200237500,-9.7926804808,0.0043891479,-0.0004560174,-0.0000301617,0.0000955887,0.0004449026
558515.1300237500,-9.7911181322,-0.0038413306,0.0001375674,-0.0000193051,0.0000738874,-0.0005639236
558515.1400237500,-9.7928334099,0.0066759404,0.0006138659,-0.0000518750,0.0000413356,0.0003798171
558515.1500237500,-9.7908135426,-0.0024676155,0.0007456967,-0.0000518750,0.0000847381,-0.0003795145
558515.1600237500,-9.7926839356,0.0065242470,0.0001549982,-0.0000410183,0.0000738874,0.0000760844
558515.1700237500,-9.7914286709,-0.0036897764,-0.0004698644,-0.0000193051,0.0000738874,-0.0000215439
558515.1800237501,-9.7925254228,0.0053045875,0.0003056811,-0.0000193051,0.0000955887,-0.0002601910
558515.1900237500,-9.7917484416,0.0019520523,0.0004503126,-0.0000518750,0.0000738874,0.0002713411
558515.2000237500,-9.7922080031,0.0005778508,-0.0004615676,-0.0000301617,0.0000955887,-0.0004879904
558515.2100237500,-9.7925183699,0.0025593113,-0.0001531037,-0.0000735882,0.0000738874,0.0004123598
558515.2200237500,-9.7911264323,-0.0014009693,0.0002911932,-0.0000301617,0.0000630368,-0.0005530760
558515.2300237500,-9.7931427301,0.0068274250,0.0001589439,-0.0000301617,0.0000847381,0.0003906647
558515.2400237500,-9.7911241960,-0.0035359990,-0.0004723321,-0.0000084485,0.0000738874,-0.0004554476
558515.2500237500,-9.7925235234,0.0060669444,0.0009160690,-0.0000193051,0.0000738874,0.0001845604
558515.2600237500,-9.7909679196,-0.0026206288,0.0004418762,-0.0000301617,0.0000847381,-0.0001300198
558515.2700237500,-9.7917663751,0.0056129066,-0.0000055425,-0.0000301617,0.0000738874,-0.0001517150
558515.2800237500,-9.7914435152,0.0004283809,-0.0003154712,-0.0000518750,0.0000738874,0.0002062556
558515.2900237500,-9.7920530312,0.0005783372,-0.0001578168,-0.0000193051,0.0000847381,-0.0004337525
558515.3000237501,-9.7922132140,0.0034755151,0.0003023066,-0.0000301617,0.0000630368,0.0003581219
558515.3100237499,-9.7920487808,0.0004256020,0.0002996427,-0.0000084485,0.0000955887,-0.0005096856
558515.3200237500,-9.7926707901,0.0037786236,0.0004587621,-0.0000193051,0.0000738874,0.0003689695
558515.3300237500,-9.7917385001,-0.0024708117,-0.0004667689,-0.0000084485,0.0000738874,-0.0004988380
558515.3400237500,-9.7928315678,0.0068283284,0.0009189552,-0.0000410183,0.0000738874,0.0003255791
558515.3500237500,-9.7914249867,-0.0033850004,0.0001403141,-0.0000518750,0.0000847381,-0.0003035813
558515.3600237500,-9.7922281729,0.0063737348,-0.0001538973,-0.0000410183,0.0000413356,0.0000109989
558515.3700237500,-9.7915882875,-0.0012501099,-0.0001624601,-0.0000301617,0.0000847381,0.0000109989
558515.3800237500,-9.7923693471,0.0040850669,0.0001513446,-0.0000193051,0.0000630368,-0.0003144289
558515.3900237500,-9.7917399694,0.0013415974,0.0012125823,-0.0000518750,0.0000738874,0.0003038839
558515.4000237500,-9.7912837266,-0.0001813793,0.0002930200,-0.0000301617,0.0000738874,-0.0005422284
558515.4100237500,-9.7920715596,0.0043917185,-0.0006136021,-0.0000627316,0.0000738874,0.0004449026
558515.4200237500,-9.7917305654,-0.0023187708,0.0006008692,-0.0000301617,0.0000847381,-0.0005639236
558515.4300237501,-9.7929835651,0.0060652074,0.0006148557,-0.0000410183,0.0000738874,0.0003364267
558515.4400237500,-9.7912718569,-0.0035369020,0.0001389756,-0.0000193051,0.0000738874,-0.0003686669
558515.4500237500,-9.7925381168,0.0063727620,-0.0007613989,-0.0000410183,0.0000738874,0.0001194748
558515.4600237500,-9.7920422940,-0.0018621629,-0.0000064231,-0.0000301617,0.0000738874,-0.0001191722
558515.4700237500,-9.7920636250,0.0045437593,0.0004540359,-0.0000410183,0.0000738874,-0.0001408674
558515.4800237500,-9.7920422080,-0.0009472097,0.0004515247,-0.0000518750,0.0000738874,0.0001628652
558515.4900237500,-9.7923658349,0.0025599366,-0.0001543725,-0.0000084485,0.0000738874,-0.0003795145
558515.5000237500,-9.7922138663,0.0030180732,-0.0000029222,-0.0000410183,0.0000630368,0.0003798171
558515.5100237500,-9.7908237708,-0.0010945955,0.0001362855,-0.0000084485,0.0000847381,-0.0005964664
558515.5200237500,-9.7935889741,0.0045375066,0.0004667233,-0.0000410183,0.0000738874,0.0004557502
558515.5300237500,-9.7908227244,-0.0029245713,-0.0006271003,-0.0000193051,0.0000847381,-0.0004879904
558515.5400237500,-9.7926820648,0.0069816195,0.0006127367,-0.0000627316,0.0000630368,0.0002279508
558515.5500237501,-9.7914213025,-0.0030802243,0.0007504927,-0.0000410183,0.0000738874,-0.0001734102
558515.5600237499,-9.7929891488,0.0049980745,-0.0006057107,-0.0000301617,0.0000630368,-0.0000757819
558515.5700237500,-9.7915925092,-0.0007923903,-0.0004672703,-0.0000301617,0.0000847381,0.0000760844
558515.5800237500,-9.7914481025,0.0034785026,0.0006009824,-0.0000193051,0.0000738874,-0.0003144289
558515.5900237500,-9.7923549544,0.0016443585,0.0007602675,-0.0000518750,0.0000847381,0.0003472743
558515.6000237500,-9.7915942940,-0.0003348095,-0.0004670610,-0.0000301617,0.0000738874,-0.0005639236
558515.6100237500,-9.7925321676,0.0048474928,-0.0007620964,-0.0000627316,0.0000738874,0.0004557502
558515.6200237500,-9.7908123814,-0.0030776537,0.0005929080,-0.0000301617,0.0000738874,-0.0005747712
558515.6300237500,-9.7931372325,0.0069796048,0.0009215624,-0.0000301617,0.0000738874,0.0003255791
558515.6400237500,-9.7909722847,-0.0036878312,-0.0006261804,-0.0000301617,0.0000738874,-0.0002168006
558515.6500237500,-9.7920781324,0.0057645302,-0.0007654841,-0.0000193051,0.0000847381,-0.0001191722
558515.6600237500,-9.7915815427,-0.0007930152,0.0009053175,-0.0000301617,0.0000630368,0.0002062556
558515.6700237500,-9.7920474189,0.0019504546,0.0012153988,-0.0000084485,0.0001064393,-0.0004771428
558515.6800237501,-9.7929819811,0.0034727359,-0.0004538985,-0.0000627316,0.0000738874,0.0004340550
558515.6900237500,-9.7909830792,-0.0018572999,-0.0010828726,-0.0000084485,0.0000738874,-0.0005964664
558515.7000237500,-9.7929805045,0.0062175260,0.0010724547,-0.0000410183,0.0000738874,0.0003906647
558515.7100237500,-9.7911090650,-0.0046043123,0.0008997674,-0.0000193051,0.0000847381,-0.0004012097
558515.7200237500,-9.7928370654,0.0066761487,0.0001563367,-0.0000518750,0.0000847381,0.0001194748
558515.7300237500,-9.7918995359,-0.0021659665,-0.0013804192,-0.0000518750,0.0000847381,-0.0000323915
558515.7400237500,-9.7912998467,0.0033268787,-0.0000103951,-0.0000301617,0.0000738874,-0.0002818861
558515.7500237500,-9.7929566505,0.0007264181,0.0013749630,-0.0000627316,0.0000738874,0.0003038839
558515.7600237500,-9.7914434005,0.0016483185,0.0002951258,-0.0000084485,0.0000847381,-0.0005422284
558515.7700237500,-9.7922289686,0.0043913710,-0.0012223724,-0.0000301617,0.0000630368,0.0004340550
558515.7800237500,-9.7912766736,-0.0029266555,-0.0001657649,-0.0000084485,0.0000738874,-0.0005530760
558515.7900237500,-9.7929823466,0.0060651380,0.0007673654,-0.0000627316,0.0001064393,0.0003581219
558515.8000237501,-9.7911253285,-0.0026209764,-0.0001668941,-0.0000410183,0.0000738874,-0.0003795145
558515.8100237499,-9.7920792362,0.0069845372,-0.0003073968,-0.0000518750,0.0000738874,0.0001194748
558515.8200237500,-9.7921925066,-0.0030828646,-0.0003107320,-0.0000193051,0.0000630368,-0.0001517150
558515.8300237500,-9.7920593459,0.0046960085,0.0010641447,-0.0000193051,0.0000413356,-0.0001300198
558515.8400237500,-9.7912812322,0.0004284506,0.0009033381,-0.0000410183,0.0000847381,0.0000977796
558515.8500237500,-9.7922151421,0.0024081739,-0.0004607305,-0.0000193051,0.0000847381,-0.0003252765
558515.8600237500,-9.7919029333,0.0005791014,-0.0004641050,-0.0000518750,0.0000413356,0.0003038839
558515.8700237500,-9.7915881441,0.0002748121,0.0006007863,-0.0000084485,0.0000955887,-0.0005096856
558515.8800237500,-9.7926707327,0.0043885924,0.0007640606,-0.0000518750,0.0000630368,0.0004449026
558515.8900237500,-9.7912815189,-0.0026213933,-0.0006231546,-0.0000301617,0.0000738874,-0.0005639236
558515.9000237500,-9.7931379135,0.0062171785,0.0004636844,-0.0000410183,0.0000738874,0.0003472743
558515.9100237510,-9.7908136286,-0.0033825687,0.0002877489,-0.0000084485,0.0000738874,-0.0003686669
558515.9200237510,-9.7925283687,0.0063722065,0.0004586792,-0.0000301617,0.0000738874,0.0000760844
558515.9300237510,-9.7915798726,-0.0024705336,0.0002945112,-0.0000301617,0.0000738874,0.0000218465
558515.9400237510,-9.7920746489,0.0039344155,-0.0012238504,-0.0000193051,0.0000738874,-0.0003361241
558515.9500237510,-9.7917478754,0.0014945410,0.0002975936,-0.0000627316,0.0000738874,0.0003798171
558515.9600237510,-9.7915767547,-0.0017082462,0.0010574087,-0.0000084485,0.0000738874,-0.0006181615
558515.9700237510,-9.7926888956,0.0056095716,-0.0009129887,-0.0000301617,0.0000738874,0.0004774454
558515.9800237510,-9.7909655112,-0.0029257521,0.0005942465,-0.0000301617,0.0000738874,-0.0005422284
558515.9900237510,-9.7928334099,0.0066759404,0.0006138659,-0.0000518750,0.0000955887,0.0002930363
558516.0000237511,-9.7912845795,-0.0027737119,-0.0010807537,-0.0000301617,0.0000413356,-0.0002168006
558516.0100237509,-9.7926779577,0.0053039623,0.0003069499,-0.0000410183,0.0000847381,-0.0000649343
558516.0200237510,-9.7920391474,-0.0007948911,0.0009091237,-0.0000518750,0.0000738874,0.0000977796
558516.0300237510,-9.7923682146,0.0031700443,-0.0001540935,-0.0000193051,0.0000738874,-0.0003361241
558516.0400237510,-9.7923750168,0.0021029808,-0.0015271696,-0.0000410183,0.0000738874,0.0002821887
558516.0500237510,-9.7915912047,0.0001224935,0.0001431873,0.0000024082,0.0000738874,-0.0004988380
558516.0600237510,-9.7923602513,0.0036270695,0.0010661939,-0.0000518750,0.0000738874,0.0004232074
558516.0700237510,-9.7908273977,-0.0007894028,-0.0001685945,-0.0000301617,0.0000955887,-0.0005096856
558516.0800237510,-9.7926876771,0.0056095022,-0.0007604789,-0.0000410183,0.0000413356,0.0003472743
558516.0900237510,-9.7918880317,-0.0029290871,-0.0003131997,-0.0000301617,0.0000738874,-0.0004229049
558516.1000237510,-9.7923588608,0.0054569065,0.0021345993,-0.0000410183,0.0000738874,0.0002062556
558516.1100237510,-9.7918855087,-0.0020142728,0.0004497677,-0.0000193051,0.0000847381,-0.0001951054
558516.1200237510,-9.7922434473,0.0059171262,-0.0022892432,-0.0000193051,0.0000413356,-0.0000757819
558516.1300237509,-9.7918842902,-0.0020143423,0.0006022774,-0.0000627316,0.0000847381,0.0000543893
558516.1400237510,-9.7919008905,0.0028663802,0.0009095291,-0.0000193051,0.0000630368,-0.0002927337
558516.1500237510,-9.7925159615,0.0022541881,-0.0000007335,-0.0000627316,0.0000847381,0.0002604935
558516.1600237510,-9.7914544817,0.0004290058,-0.0016880591,-0.0000193051,0.0000738874,-0.0004771428
558516.1700237510,-9.7934317659,0.0024029633,0.0000069487,-0.0000301617,0.0000738874,0.0003798171
558516.1800237510,-9.7906633013,-0.0009419294,0.0012026548,-0.0000193051,0.0000847381,-0.0005205332
558516.1900237510,-9.7923648959,0.0060672225,0.0016773490,-0.0000410183,0.0000847381,0.0004232074
558516.2000237510,-9.7905407202,-0.0020070483,-0.0030693754,-0.0000301617,0.0000955887,-0.0004662952
558516.2100237510,-9.7923801416,0.0059155982,-0.0003053476,-0.0000735882,0.0000738874,0.0001954080
558516.2200237510,-9.7920095951,-0.0039989285,0.0030427954,-0.0000084485,0.0000630368,-0.0001517150
558516.2300237510,-9.7925301248,0.0071347717,0.0006115377,-0.0000301617,0.0000955887,-0.0001083246
558516.2400237510,-9.7920724986,0.0008844327,-0.0024453236,-0.0000193051,0.0000630368,0.0001086272
558516.2500237511,-9.7932726582,0.0010307769,0.0001575619,-0.0000084485,0.0000738874,-0.0003795145
558516.2600237509,-9.7918875443,0.0022556476,0.0022818379,-0.0000518750,0.0000738874,0.0003581219
558516.2700237510,-9.7917424638,0.0007317675,0.0006022643,-0.0000301617,0.0001064393,-0.0005096856
558516.2800237510,-9.7925407259,0.0045429945,-0.0019823140,-0.0000518750,0.0000630368,0.0004123598
558516.2900237510,-9.7911259521,-0.0027734338,-0.0003194736,-0.0000084485,0.0000738874,-0.0005205332
558516.3000237510,-9.7929701902,0.0057594592,0.0021398137,-0.0000301617,0.0000630368,0.0003038839
558516.3100237510,-9.7912796482,-0.0021640209,-0.0001654161,-0.0000193051,0.0001064393,-0.0003252765
558516.3200237510,-9.7922367025,0.0063742209,-0.0012214656,-0.0000518750,0.0000738874,0.0000435417
558516.3300237510,-9.7923425758,-0.0027786444,0.0001482056,-0.0000410183,0.0000738874,0.0000001513
558516.3400237510,-9.7925103492,0.0036263054,0.0013724821,-0.0000518750,0.0000738874,-0.0002818861
558516.3500237510,-9.7918949413,0.0013411110,0.0009088316,-0.0000627316,0.0000847381,0.0003147315
558516.3600237510,-9.7914484465,-0.0001813102,-0.0012308088,-0.0000084485,0.0000630368,-0.0005856188
558516.3700237510,-9.7928414592,0.0053039619,-0.0010643692,-0.0000410183,0.0000738874,0.0004340550
558516.3800237509,-9.7908134852,-0.0018576467,0.0010509953,-0.0000301617,0.0000738874,-0.0005096856
558516.3900237510,-9.7928273747,0.0060656244,0.0010711162,-0.0000301617,0.0000738874,0.0003472743
558516.4000237510,-9.7911296650,-0.0033831943,-0.0010823014,-0.0000301617,0.0000847381,-0.0003686669
558516.4100237510,-9.7926894045,0.0066770517,-0.0004549711,-0.0000518750,0.0000738874,0.0001411700
558516.4200237510,-9.7920314422,-0.0030827254,0.0007555676,-0.0000301617,0.0000630368,-0.0001191722
558516.4300237510,-9.7920563426,0.0042383583,0.0012164452,-0.0000193051,0.0000847381,-0.0001734102
558516.4400237510,-9.7920506515,-0.0000317704,-0.0001580958,-0.0000410183,0.0000738874,0.0001845604
558516.4500237510,-9.7917660956,0.0021055514,-0.0016847543,-0.0000193051,0.0000847381,-0.0004337525
558516.4600237510,-9.7921987640,0.0016447754,0.0012165281,-0.0000627316,0.0000413356,0.0004232074
558516.4700237510,-9.7912704090,-0.0010970963,0.0015126796,-0.0000301617,0.0000955887,-0.0005639236
558516.4800237510,-9.7930005669,0.0066761483,-0.0012149824,-0.0000627316,0.0000738874,0.0004340550
558516.4900237510,-9.7906690857,-0.0041439531,-0.0010864564,-0.0000301617,0.0000738874,-0.0004988380
558516.5000237511,-9.7925228998,0.0062194018,0.0010686485,-0.0000410183,0.0000630368,0.0002496459
558516.5100237509,-9.7911173939,-0.0024689355,0.0009007440,-0.0000301617,0.0000955887,-0.0001951054
558516.5200237510,-9.7925333001,0.0057625155,-0.0004566584,-0.0000193051,0.0000738874,-0.0001083246
558516.5300237510,-9.7917457251,-0.0015554418,-0.0009238796,-0.0000410183,0.0000738874,0.0001845604
558516.5400237510,-9.7920504508,0.0021031204,0.0009104491,-0.0000301617,0.0000738874,-0.0004662952
558516.5500237510,-9.7926683244,0.0040834692,0.0009164309,-0.0000627316,0.0000738874,0.0004232074
558516.5600237510,-9.7912935893,-0.0014007613,-0.0015376551,-0.0000084485,0.0000738874,-0.0005747712
558516.5700237510,-9.7926786100,0.0048465204,0.0000017211,-0.0000410183,0.0000738874,0.0004123598
558516.5800237510,-9.7914164859,-0.0036904708,0.0010552332,-0.0000084485,0.0000738874,-0.0004120573
558516.5900237510,-9.7922365305,0.0082041273,-0.0003055700,-0.0000627316,0.0000738874,0.0001628652
558516.6000237510,-9.7914316742,-0.0032321263,-0.0006221649,-0.0000193051,0.0000738874,-0.0001191722
558516.6100237510,-9.7926756641,0.0037789014,-0.0001512770,-0.0000410183,0.0000738874,-0.0001734102
558516.6200237510,-9.7914344194,-0.0000296165,0.0005993780,-0.0000410183,0.0000738874,0.0001845604
558516.6300237509,-9.7919093627,0.0034768351,0.0001472594,-0.0000084485,0.0000738874,-0.0004120573
558516.6400237510,-9.7920656105,0.0028664493,-0.0006142997,-0.0000518750,0.0000630368,0.0003472743
558516.6500237510,-9.7921954525,-0.0020152456,-0.0001577339,0.0000024082,0.0000847381,-0.0005205332
558516.6600237510,-9.7929734229,0.0037772342,0.0007663191,-0.0000518750,0.0000630368,0.0004232074
558516.6700237510,-9.7908219287,-0.0009422075,0.0004413748,-0.0000410183,0.0000955887,-0.0005096856
558516.6800237510,-9.7923813028,0.0065256365,-0.0001525588,-0.0000627316,0.0000738874,0.0003147315
558516.6900237510,-9.7921957106,-0.0047601052,-0.0015315773,-0.0000193051,0.0000630368,-0.0003361241
558516.7000237510,-9.7928304066,0.0062182902,0.0007661664,-0.0000301617,0.0000738874,0.0000435417
558516.7100237510,-9.7918841755,-0.0007944047,0.0012128745,-0.0000193051,0.0000738874,0.0000326941
558516.7200237510,-9.7916103281,0.0040884016,-0.0003125284,-0.0000193051,0.0000738874,-0.0003144289
558516.7300237510,-9.7915930181,0.0002750898,-0.0000092527,-0.0000627316,0.0000738874,0.0003038839
558516.7400237510,-9.7911354134,0.0002769656,-0.0000130590,-0.0000193051,0.0000738874,-0.0005530760
558516.7500237511,-9.7925265840,0.0059146258,0.0004584699,-0.0000518750,0.0000738874,0.0004557502
558516.7600237509,-9.7914346488,-0.0024694917,-0.0006218161,-0.0000193051,0.0000955887,-0.0005639236
558516.7700237510,-9.7929873067,0.0051504625,-0.0003006214,-0.0000301617,0.0000738874,0.0003255791
558516.7800237510,-9.7909637265,-0.0033833328,0.0005940372,-0.0000193051,0.0000738874,-0.0002601910
558516.7900237510,-9.7923806505,0.0069830783,0.0001526700,-0.0000301617,0.0000955887,-0.0000432391
558516.8000237510,-9.7923528041,-0.0014056244,-0.0004612057,-0.0000410183,0.0000630368,0.0001194748
558516.8100237510,-9.7916020566,0.0013430560,-0.0006188035,-0.0000301617,0.0000738874,-0.0004337525
558516.8200237510,-9.7918996720,0.0028663108,0.0010620389,-0.0000518750,0.0000738874,0.0004123598
558516.8300237510,-9.7915948889,-0.0001822826,-0.0004669913,-0.0000084485,0.0000738874,-0.0005747712
558516.8400237510,-9.7929975923,0.0059135138,-0.0012153312,-0.0000410183,0.0000738874,0.0004123598
558516.8500237510,-9.7906557108,-0.0044497013,0.0004385017,-0.0000084485,0.0000847381,-0.0004771428
558516.8600237510,-9.7928230956,0.0062178735,0.0016812250,-0.0000518750,0.0000738874,0.0002821887
558516.8700237510,-9.7915986591,-0.0014020119,-0.0015351176,-0.0000193051,0.0000847381,-0.0002168006
558516.8800237509,-9.7923917318,0.0057637657,-0.0018305149,-0.0000410183,0.0000413356,-0.0000757819
558516.8900237510,-9.7911112727,-0.0021642983,0.0018159420,-0.0000084485,0.0000413356,0.0000977796
558516.9000237510,-9.7922047418,0.0028650602,0.0010645764,-0.0000084485,0.0000847381,-0.0003686669
558516.9100237510,-9.7923815895,0.0034757925,-0.0016790515,-0.0000410183,0.0000630368,0.0003581219
558516.9200237510,-9.7905277968,-0.0006353476,-0.0007811012,-0.0000301617,0.0000738874,-0.0005422284
558516.9300237510,-9.7922010003,0.0037798051,0.0019800534,-0.0000627316,0.0000738874,0.0004340550
558516.9400237510,-9.7912759640,-0.0018592448,0.0004447625,-0.0000301617,0.0000847381,-0.0004879904
558516.9500237510,-9.7928516588,0.0069819663,-0.0015211312,-0.0000518750,0.0000738874,0.0002930363
558516.9600237510,-9.7909655973,-0.0038407053,0.0001362986,-0.0000084485,0.0000738874,-0.0003686669
558516.9700237510,-9.7926669338,0.0059133061,0.0019848362,-0.0000410183,0.0000738874,0.0001086272
558516.9800237520,-9.7917366006,-0.0017084548,0.0001436189,-0.0000084485,0.0000738874,-0.0000649343
558516.9900237520,-9.7919287154,0.0050028681,-0.0015296504,-0.0000301617,0.0000738874,-0.0001734102
558517.0000237520,-9.7918957083,-0.0003362684,-0.0000069943,-0.0000518750,0.0000630368,0.0002171032
558517.0100237520,-9.7918822187,0.0005779210,0.0021285609,-0.0000193051,0.0000847381,-0.0004879904
558517.0200237520,-9.7929794294,0.0046925346,0.0004617181,-0.0000518750,0.0000738874,0.0004449026
558517.0300237520,-9.7916101919,-0.0009438756,-0.0027549864,-0.0000193051,0.0000738874,-0.0005964664
558517.0400237520,-9.7925212011,0.0048468679,0.0006104914,-0.0000410183,0.0000413356,0.0003798171
558517.0500237520,-9.7914006453,-0.0036913735,0.0030378600,-0.0000084485,0.0000955887,-0.0004229049
558517.0600237520,-9.7920901168,0.0079001153,-0.0012220368,-0.0000627316,0.0000738874,0.0002062556
558517.0700237521,-9.7918984320,-0.0033859735,-0.0018385065,-0.0000193051,0.0000738874,-0.0002168006
558517.0800237519,-9.7919140647,0.0053070192,0.0004531160,-0.0000518750,0.0000413356,-0.0000757819
558517.0900237520,-9.7914115258,-0.0027757954,0.0021232200,-0.0000301617,0.0000738874,0.0001303224
558517.1000237520,-9.7928324494,0.0039310114,-0.0006074677,-0.0000193051,0.0000955887,-0.0004012097
558517.1100237520,-9.7926939130,0.0040849274,-0.0022862740,-0.0000410183,0.0000630368,0.0003798171
558517.1200237520,-9.7911215870,-0.0017062315,0.0007485830,-0.0000193051,0.0000738874,-0.0006181615
558517.1300237520,-9.7923527969,0.0051515749,0.0027444988,-0.0000627316,0.0000847381,0.0005099882
558517.1400237520,-9.7917530361,-0.0015550252,-0.0018389382,-0.0000301617,0.0000847381,-0.0004771428
558517.1500237520,-9.7928558806,0.0074396860,-0.0018259414,-0.0000301617,0.0000413356,0.0001303224
558517.1600237520,-9.7918680267,-0.0039976782,0.0016689389,-0.0000301617,0.0000630368,-0.0000866295
558517.1700237520,-9.7921979110,0.0042371081,0.0025903018,-0.0000193051,0.0000847381,-0.0001517150
558517.1800237520,-9.7920639118,0.0014939154,-0.0010724568,-0.0000193051,0.0000738874,0.0002062556
558517.1900237520,-9.7919271027,0.0027153809,-0.0024457553,-0.0000518750,0.0000738874,-0.0004771428
558517.2000237521,-9.7918876303,0.0013406944,0.0018238901,-0.0000518750,0.0000630368,0.0004123598
558517.2100237519,-9.7917268526,-0.0017090103,0.0013636970,-0.0000301617,0.0000955887,-0.0005639236
558517.2200237520,-9.7934775530,0.0078953211,-0.0030407352,-0.0000518750,0.0000738874,0.0004340550
558517.2300237520,-9.7908167465,-0.0041448561,-0.0004751486,-0.0000084485,0.0000738874,-0.0005096856
558517.2400237520,-9.7921990435,0.0051521307,0.0028957398,-0.0000193051,0.0000630368,0.0002496459
558517.2500237520,-9.7909824556,-0.0017048424,-0.0009302931,-0.0000301617,0.0000955887,-0.0001191722
558517.2600237520,-9.7923941114,0.0063738734,-0.0018302359,-0.0000518750,0.0000738874,-0.0002168006
558517.2700237520,-9.7923466829,-0.0011009871,0.0004539924,-0.0000518750,0.0000738874,0.0002496459
558517.2800237520,-9.7917370522,-0.0000310059,0.0009069350,-0.0000301617,0.0000738874,-0.0005096856
558517.2900237520,-9.7922192492,0.0040858311,-0.0001549436,-0.0000193051,0.0000738874,0.0004449026
558517.3000237520,-9.7914569187,0.0004291447,-0.0019930786,-0.0000084485,0.0000738874,-0.0005639236
558517.3100237520,-9.7926712703,0.0051510881,0.0010694289,-0.0000301617,0.0000847381,0.0003689695
558517.3200237521,-9.7908021818,-0.0047556581,0.0010496699,-0.0000410183,0.0000847381,-0.0004012097
558517.3300237519,-9.7923873093,0.0074409368,-0.0004571598,-0.0000627316,0.0000738874,0.0001845604
558517.3400237520,-9.7912814616,-0.0020114245,-0.0003178561,-0.0000301617,0.0000630368,-0.0002059530
558517.3500237520,-9.7923680712,0.0046949663,0.0006091529,-0.0000410183,0.0000738874,-0.0000866295
558517.3600237520,-9.7920441075,-0.0017095665,-0.0001588631,-0.0000301617,0.0000738874,0.0001086272
558517.3700237520,-9.7919045460,0.0028665885,0.0004519999,0.0000132648,0.0000738874,-0.0003795145
558517.3800237520,-9.7916084860,0.0042407897,-0.0000074391,-0.0000518750,0.0000738874,0.0004123598
558517.3900237520,-9.7912881777,-0.0021635348,-0.0012329844,-0.0000301617,0.0000847381,-0.0006290091
558517.4000237520,-9.7932869649,0.0043864385,0.0000065868,-0.0000627316,0.0000738874,0.0004557502
558517.4100237520,-9.7909678909,-0.0023156444,0.0005945255,-0.0000301617,0.0000738874,-0.0004337525
558517.4200237520,-9.7928358182,0.0069810636,0.0004614957,-0.0000410183,0.0000738874,0.0001628652
558517.4300237520,-9.7912730754,-0.0035368326,-0.0000135341,-0.0000193051,0.0000738874,-0.0001517150
558517.4400237520,-9.7926756354,0.0040838858,0.0000013723,-0.0000193051,0.0000738874,-0.0000757819
558517.4500237521,-9.7917400841,0.0001216599,0.0006019853,-0.0000410183,0.0001064393,0.0000977796
558517.4600237519,-9.7928288226,0.0036258186,-0.0003025877,-0.0000410183,0.0000630368,-0.0003144289
558517.4700237520,-9.7922121389,0.0019505237,-0.0003084300,-0.0000953015,0.0000630368,0.0002930363
558517.4800237520,-9.7917335400,-0.0015561362,0.0006012179,-0.0000084485,0.0000738874,-0.0005205332
558517.4900237520,-9.7929788345,0.0045400077,0.0004616483,-0.0000301617,0.0000738874,0.0004665978
558517.5000237520,-9.7908353037,-0.0006364592,-0.0010835833,-0.0000193051,0.0000738874,-0.0005530760
558517.5100237520,-9.7937535507,0.0060624977,-0.0002938592,-0.0000193051,0.0000738874,0.0003255791
558517.5200237520,-9.7908101451,-0.0052126834,-0.0001706174,-0.0000410183,0.0000738874,-0.0002927337
558517.5300237520,-9.7931385084,0.0063697054,0.0004637542,-0.0000518750,0.0000738874,0.0000001513
558517.5400237520,-9.7915767260,-0.0014032618,0.0012100580,-0.0000301617,0.0000738874,0.0000977796
558517.5500237520,-9.7919203006,0.0037824444,-0.0010726792,-0.0000301617,0.0000738874,-0.0004012097
558517.5600237520,-9.7923683580,0.0016451223,-0.0009173398,-0.0000410183,0.0000738874,0.0003906647
558517.5700237521,-9.7912747455,-0.0018593142,0.0005972722,-0.0000084485,0.0000738874,-0.0005856188
558517.5800237519,-9.7931354764,0.0062170396,0.0007687039,-0.0000193051,0.0000738874,0.0004991406
558517.5900237520,-9.7914292372,-0.0032322651,-0.0003171454,-0.0000301617,0.0000955887,-0.0005096856
558517.6000237520,-9.7925380594,0.0069827308,-0.0004561003,-0.0000518750,0.0000738874,0.0002062556
558517.6100237520,-9.7912718282,-0.0032319176,0.0002916249,-0.0000193051,0.0000738874,-0.0001083246
558517.6200237520,-9.7922136656,0.0051529640,0.0010656227,-0.0000301617,0.0000738874,-0.0002276482
558517.6300237520,-9.7917455817,-0.0000305199,-0.0001606333,0.0000024082,0.0000738874,0.0002713411
558517.6400237520,-9.7917516169,0.0005797961,-0.0006178835,-0.0000193051,0.0000630368,-0.0005530760
558517.6500237520,-9.7926719225,0.0046936463,0.0007642001,-0.0000410183,0.0000738874,0.0004665978
558517.6600237520,-9.7911301739,-0.0023157142,-0.0006242838,-0.0000410183,0.0000847381,-0.0005530760
558517.6700237520,-9.7928389075,0.0065237606,-0.0001487526,-0.0000627316,0.0000738874,0.0003364267
558517.6800237520,-9.7906593376,-0.0041445086,0.0001336217,-0.0000301617,0.0000738874,-0.0003361241
558517.6900237520,-9.7925326192,0.0065249417,0.0000012197,-0.0000301617,0.0000738874,0.0000760844
558517.7000237521,-9.7912795908,-0.0015540521,0.0001398825,-0.0000193051,0.0000738874,-0.0000215439
558517.7100237519,-9.7919075493,0.0033242387,0.0002996994,-0.0000084485,0.0000738874,-0.0002927337
558517.7200237520,-9.7922085694,0.0010353622,-0.0003088485,-0.0000410183,0.0000738874,0.0003038839
558517.7300237520,-9.7919041231,0.0008841552,-0.0004639655,-0.0000301617,0.0000847381,-0.0005096856
558517.7400237520,-9.7923596564,0.0034745426,0.0010661241,-0.0000627316,0.0000738874,0.0004340550
558517.7500237520,-9.7908239142,-0.0026195175,-0.0006269608,-0.0000410183,0.0000847381,-0.0005639236
558517.7600237520,-9.7923832022,0.0057632796,-0.0007629466,-0.0000301617,0.0000738874,0.0003581219
558517.7700237520,-9.7911108211,-0.0038417472,0.0010526259,-0.0000084485,0.0000738874,-0.0003469717
558517.7800237520,-9.7940415328,0.0063652594,0.0019964642,-0.0000301617,0.0000738874,0.0000869320
558517.7900237520,-9.7922004126,-0.0029299211,-0.0012257207,-0.0000410183,0.0000847381,0.0000001513
558517.8000237520,-9.7919191108,0.0034773906,-0.0010728187,-0.0000301617,0.0000738874,-0.0002927337
558517.8100237520,-9.7915892479,0.0014948191,0.0010588736,-0.0000627316,0.0000738874,0.0002821887
558517.8200237521,-9.7912824794,0.0001235357,0.0005981791,-0.0000193051,0.0000847381,-0.0005422284
558517.8300237519,-9.7923742785,0.0034753759,-0.0007639930,-0.0000410183,0.0000738874,0.0004340550
558517.8400237520,-9.7925145208,-0.0018632054,-0.0018327340,-0.0000301617,0.0000630368,-0.0005313808
558517.8500237520,-9.7928334386,0.0063709560,0.0004612167,-0.0000193051,0.0000738874,0.0003364267
558517.8600237520,-9.7908014148,-0.0030782787,0.0019654958,-0.0000410183,0.0000738874,-0.0003469717
558517.8700237520,-9.7923758912,0.0057628630,0.0001521119,-0.0000627316,0.0000847381,0.0000869320
558517.8800237520,-9.7919110687,-0.0017078302,-0.0026002880,-0.0000518750,0.0000738874,0.0000001513
558517.8900237520,-9.7923718128,0.0037802214,-0.0003063242,-0.0000193051,0.0000630368,-0.0003686669
558517.9000237520,-9.7923355443,0.0007282943,0.0027424759,-0.0000301617,0.0000738874,0.0003906647
558517.9100237520,-9.7914424114,-0.0007916261,-0.0007735586,-0.0000084485,0.0001064393,-0.0005747712
558517.9200237520,-9.7931628785,0.0063710942,-0.0025864410,-0.0000301617,0.0000413356,0.0004774454
558517.9300237520,-9.7908130337,-0.0035350956,0.0002876792,-0.0000193051,0.0000738874,-0.0005530760
558517.9400237520,-9.7926589992,0.0060653470,0.0030524743,-0.0000735882,0.0000847381,0.0002930363
558517.9500237521,-9.7917373102,-0.0027758655,-0.0004669084,-0.0000410183,0.0000847381,-0.0001951054
558517.9600237519,-9.7925496783,0.0065259139,-0.0021339169,-0.0000193051,0.0000738874,-0.0000757819
558517.9700237520,-9.7914297174,-0.0018598006,0.0002935214,-0.0000193051,0.0000630368,0.0000543893
558517.9800237520,-9.7920412690,0.0025600762,0.0022832462,-0.0000084485,0.0000847381,-0.0003252765
558517.9900237520,-9.7920565434,0.0021034675,0.0001479003,-0.0000518750,0.0001064393,0.0003472743
558518.0000237520,-9.7913092292,0.0007350321,-0.0024517371,-0.0000301617,0.0000413356,-0.0005313808
558518.0100237520,-9.7928293888,0.0040833300,-0.0001498687,-0.0000627316,0.0000847381,0.0004340550
558518.0200237520,-9.7914152100,-0.0030805715,0.0015130415,-0.0000193051,0.0000738874,-0.0005639236
558518.0300237520,-9.7932929427,0.0056067233,-0.0001453649,-0.0000301617,0.0000738874,0.0003906647
558518.0400237520,-9.7909850073,-0.0029246411,-0.0018459097,-0.0000193051,0.0000738874,-0.0003795145
558518.0500237520,-9.7931433537,0.0066749676,0.0000063644,-0.0000410183,0.0000630368,0.0000435417
558518.0600237530,-9.7911071083,-0.0032319867,0.0018154537,-0.0000518750,0.0000847381,0.0000435417
558518.0700237530,-9.7922155937,0.0040856227,0.0003025856,-0.0000301617,0.0001064393,-0.0003686669
558518.0800237530,-9.7919277263,0.0025629235,-0.0025983348,-0.0000518750,0.0000304849,0.0003689695
558518.0900237530,-9.7911295216,-0.0018582723,-0.0003190551,-0.0000301617,0.0000847381,-0.0005964664
558518.1000237530,-9.7935748896,0.0052991690,0.0026022087,-0.0000193051,0.0000738874,0.0004774454
558518.1100237530,-9.7912899625,-0.0017059541,-0.0012327751,0.0000024082,0.0000847381,-0.0005096856
558518.1200237530,-9.7926954971,0.0066773989,-0.0012175199,-0.0000518750,0.0000738874,0.0002604935
558518.1300237530,-9.7911205692,-0.0038411917,-0.0001674521,-0.0000410183,0.0000738874,-0.0002168006
558518.1400237530,-9.7919006324,0.0056112398,0.0022833726,-0.0000518750,0.0000738874,-0.0001408674
558518.1500237531,-9.7912928797,-0.0003333507,-0.0009271278,-0.0000627316,0.0000955887,0.0002171032
558518.1600237529,-9.7916190583,0.0019539969,-0.0024486416,0.0000024082,0.0000413356,-0.0005096856
558518.1700237530,-9.7925176602,0.0036267220,0.0004574236,-0.0000301617,0.0000630368,0.0004449026
558518.1800237530,-9.7912650261,-0.0021648541,0.0016647010,-0.0000084485,0.0000847381,-0.0005639236
558518.1900237530,-9.7926808750,0.0066765656,0.0006125972,-0.0000518750,0.0000738874,0.0003798171
558518.2000237530,-9.7909801620,-0.0032299032,-0.0013885199,-0.0000301617,0.0000738874,-0.0004120573
558518.2100237530,-9.7928383413,0.0060662493,-0.0003014716,-0.0000627316,0.0000738874,0.0001411700
558518.2200237530,-9.7918763842,-0.0021672858,0.0015172662,-0.0000301617,0.0000738874,-0.0001408674
558518.2300237530,-9.7917591214,0.0050025212,0.0006042175,-0.0000084485,0.0000955887,-0.0000866295
558518.2400237530,-9.7911403735,-0.0006377098,-0.0010810458,-0.0000518750,0.0000413356,0.0000543893
558518.2500237530,-9.7925244337,0.0028646429,-0.0007630033,-0.0000084485,0.0000738874,-0.0002927337
558518.2600237530,-9.7918979159,0.0021037456,0.0009091803,-0.0000410183,0.0000738874,0.0002930363
558518.2700237531,-9.7923507900,0.0005766701,0.0007597792,-0.0000301617,0.0000955887,-0.0005530760
558518.2800237529,-9.7926866020,0.0040845107,-0.0013712155,-0.0000627316,0.0000738874,0.0004665978
558518.2900237530,-9.7915872410,-0.0030800857,-0.0009258459,-0.0000193051,0.0000738874,-0.0005530760
558518.3000237530,-9.7923715260,0.0068300654,0.0012201685,-0.0000193051,0.0000413356,0.0003581219
558518.3100237530,-9.7915750846,-0.0033857645,0.0004466024,-0.0000193051,0.0000955887,-0.0003252765
558518.3200237530,-9.7929896577,0.0060655546,-0.0001476931,-0.0000410183,0.0000738874,0.0000218465
558518.3300237530,-9.7917348732,-0.0027760044,-0.0001618889,-0.0000410183,0.0000630368,0.0000326941
558518.3400237530,-9.7922210913,0.0039334430,-0.0004600329,-0.0000410183,0.0000738874,-0.0003035813
558518.3500237530,-9.7919009765,0.0019514270,0.0004515813,-0.0000627316,0.0000738874,0.0003038839
558518.3600237530,-9.7922123683,-0.0004893515,-0.0015296242,-0.0000084485,0.0000738874,-0.0005205332
558518.3700237530,-9.7932906778,0.0037766780,-0.0007562410,-0.0000301617,0.0000738874,0.0004340550
558518.3800237530,-9.7909702992,-0.0020105212,0.0004421552,-0.0000084485,0.0000738874,-0.0005422284
558518.3900237530,-9.7925246559,0.0069819670,0.0012215070,-0.0000627316,0.0000847381,0.0003689695
558518.4000237531,-9.7911253859,-0.0032309451,-0.0004721926,-0.0000301617,0.0000847381,-0.0003903621
558518.4100237529,-9.7923862915,0.0053059766,-0.0013731949,-0.0000627316,0.0000738874,0.0000977796
558518.4200237530,-9.7912759353,-0.0015542604,0.0005974117,-0.0000301617,0.0000738874,-0.0000540867
558518.4300237530,-9.7920635390,0.0054587125,0.0009119837,-0.0000301617,0.0000738874,-0.0002059530
558518.4400237530,-9.7912898478,-0.0004860165,-0.0006221780,-0.0000410183,0.0000738874,0.0002171032
558518.4500237530,-9.7922085980,0.0007303778,-0.0004614978,-0.0000084485,0.0000847381,-0.0004337525
558518.4600237530,-9.7923663152,0.0039324011,0.0004562944,-0.0000627316,0.0000630368,0.0003906647
558518.4700237530,-9.7918841755,-0.0007944047,0.0012128745,-0.0000410183,0.0000738874,-0.0005639236
558518.4800237530,-9.7934419081,0.0046909365,-0.0001445147,-0.0000627316,0.0000738874,0.0003906647
558518.4900237530,-9.7909868208,-0.0027720447,-0.0019983497,0.0000132648,0.0000630368,-0.0004771428
558518.5000237530,-9.7926759723,0.0069812723,0.0013752855,-0.0000301617,0.0000630368,0.0002279508
558518.5100237530,-9.7911065420,-0.0036894980,0.0016627347,-0.0000084485,0.0001064393,-0.0001625626
558518.5200237531,-9.7926883007,0.0054570447,-0.0009130584,-0.0000410183,0.0000847381,-0.0000649343
558518.5300237529,-9.7919048614,-0.0004882398,-0.0012271421,-0.0000518750,0.0000413356,0.0000869320
558518.5400237530,-9.7920516120,0.0027131586,0.0010632379,-0.0000410183,0.0000738874,-0.0003903621
558518.5500237530,-9.7921962983,0.0019496210,0.0016741969,-0.0000627316,0.0000738874,0.0003364267
558518.5600237530,-9.7911415633,-0.0003326560,-0.0010809063,0.0000132648,0.0000738874,-0.0005205332
558518.5700237530,-9.7926871682,0.0045420221,-0.0012184965,-0.0000193051,0.0000738874,0.0004340550
558518.5800237530,-9.7911203971,-0.0020112853,0.0007484435,-0.0000193051,0.0000738874,-0.0005422284
558518.5900237530,-9.7926693995,0.0056084606,0.0015271675,-0.0000518750,0.0000738874,0.0003472743
558518.6000237530,-9.7914334876,-0.0030795299,-0.0007746049,-0.0000301617,0.0000847381,-0.0003686669
558518.6100237530,-9.7925393066,0.0066778159,-0.0007612593,-0.0000735882,0.0000738874,0.0001303224
558518.6200237530,-9.7920247834,-0.0035405839,0.0013653974,-0.0000193051,0.0000738874,-0.0001625626
558518.6300237530,-9.7923711318,0.0045426477,0.0001515539,-0.0000084485,0.0000847381,-0.0000866295
558518.6400237530,-9.7917456104,-0.0003355043,-0.0003132826,-0.0000301617,0.0000630368,0.0001086272
558518.6500237531,-9.7926703098,0.0024061591,-0.0001519048,-0.0000193051,0.0000738874,-0.0003469717
558518.6600237529,-9.7925183985,0.0022543269,-0.0003057530,-0.0000627316,0.0000847381,0.0003038839
558518.6700237530,-9.7914332295,-0.0003346703,0.0005992385,-0.0000193051,0.0000413356,-0.0005422284
558518.6800237530,-9.7925078835,0.0039311509,0.0018301509,-0.0000410183,0.0000738874,0.0003906647
558518.6900237530,-9.7913014379,-0.0006378490,-0.0021473454,-0.0000193051,0.0000847381,-0.0005096856
558518.7000237530,-9.7928390509,0.0049988386,-0.0009119990,-0.0000301617,0.0000413356,0.0003364267
558518.7100237530,-9.7907930000,-0.0042987023,0.0024224670,-0.0000084485,0.0000955887,-0.0003903621
558518.7200237530,-9.7922134648,0.0072878548,0.0021341676,-0.0000518750,0.0000738874,0.0001194748
558518.7300237530,-9.7911344530,-0.0024679634,-0.0012343926,-0.0000518750,0.0000630368,-0.0000540867
558518.7400237530,-9.7922332477,0.0042391218,-0.0018324812,-0.0000301617,0.0000847381,-0.0002493434
558518.7500237530,-9.7926425422,-0.0003402975,0.0019819762,-0.0000410183,0.0000738874,0.0002821887
558518.7600237530,-9.7912835832,0.0013435427,0.0010562664,-0.0000084485,0.0000847381,-0.0005205332
558518.7700237531,-9.7925412347,0.0056104746,-0.0015242964,-0.0000410183,0.0000521862,0.0004774454
558518.7800237529,-9.7912839846,-0.0029262388,-0.0010808234,-0.0000084485,0.0000738874,-0.0005964664
558518.7900237530,-9.7923648386,0.0066771912,0.0019826476,-0.0000410183,0.0000738874,0.0003581219
558518.8000237530,-9.7909527886,-0.0036889422,0.0018139757,-0.0000410183,0.0000847381,-0.0002601910
558518.8100237530,-9.7930030326,0.0063713028,-0.0016726512,-0.0000410183,0.0000738874,-0.0000866295
558518.8200237530,-9.7921997316,-0.0021674948,-0.0007678427,-0.0000518750,0.0000738874,0.0001954080
558518.8300237530,-9.7923464535,0.0013388880,0.0016751866,-0.0000193051,0.0000738874,-0.0004771428
558518.8400237530,-9.7925285121,0.0048472845,-0.0003045672,-0.0000301617,0.0000738874,0.0004449026
558518.8500237530,-9.7906744112,-0.0024662264,-0.0009331793,-0.0000193051,0.0000738874,-0.0005856188
558518.8600237530,-9.7935889454,0.0048424910,0.0006193726,-0.0000518750,0.0000413356,0.0003798171
558518.8700237530,-9.7906592229,-0.0029245710,0.0007442187,-0.0000301617,0.0001064393,-0.0003795145
558518.8800237530,-9.7926892898,0.0078969893,0.0001556260,-0.0000518750,0.0000847381,0.0001194748
558518.8900237530,-9.7912839846,-0.0029262388,-0.0010808234,-0.0000193051,0.0000630368,-0.0001191722
558518.9000237531,-9.7931302082,0.0039293442,0.0003101283,-0.0000084485,0.0000304849,-0.0001517150
558518.9100237529,-9.7917413313,-0.0001832551,0.0002968262,-0.0000410183,0.0000955887,0.0001954080
558518.9200237530,-9.7916012896,0.0030204354,0.0002970224,-0.0000410183,0.0001715430,-0.0004337525
558518.9300237530,-9.7912987142,0.0024118561,-0.0003158332,-0.0000627316,0.0000738874,0.0003689695
558518.9400237530,-9.7915883162,-0.0015550943,-0.0003151093,-0.0000193051,0.0000196343,-0.0005422284
558518.9500237530,-9.7929836225,0.0054552386,0.0003095571,-0.0000518750,0.0000087837,0.0004232074
558518.9600237530,-9.7909781192,-0.0009426244,-0.0000148857,-0.0000084485,0.0001606924,-0.0004879904
558518.9700237530,-9.7925344613,0.0063725537,-0.0003038696,-0.0000301617,0.0001064393,0.0002713411
558518.9800237530,-9.7911128066,-0.0055190572,-0.0000157097,-0.0000193051,0.0000738874,-0.0002276482
558518.9900237530,-9.7926905657,0.0072870899,-0.0003021823,-0.0000410183,0.0000196343,-0.0000323915
558519.0000237530,-9.7917443919,-0.0003355737,-0.0001607728,-0.0000301617,0.0000196343,0.0000869320
558519.0100237530,-9.7912914031,0.0024114394,0.0005992254,-0.0000518750,0.0001498418,-0.0004337525
558519.0200237531,-9.7923585812,0.0019495512,0.0004553875,-0.0000410183,0.0001064393,0.0004232074
558519.0300237529,-9.7911373415,-0.0007903756,-0.0007760960,-0.0000084485,0.0000196343,-0.0005856188
558519.0400237530,-9.7932776684,0.0060633319,0.0019899810,-0.0000301617,-0.0000129176,0.0004449026
558519.0500237530,-9.7918887413,-0.0039964978,-0.0009237270,-0.0000084485,0.0001064393,-0.0004771428
558519.0600237530,-9.7914667169,0.0063769306,-0.0003127507,-0.0000518750,0.0001498418,0.0001737128
558519.0700237530,-9.7908147897,-0.0027725305,0.0004405377,-0.0000518750,0.0000955887,-0.0000757819
558519.0800237530,-9.7926840216,0.0056092938,-0.0003029496,-0.0000410183,-0.0000129176,-0.0002493434
558519.0900237530,-9.7929591162,0.0004215726,0.0009172942,-0.0000301617,0.0000304849,0.0002821887
558519.1000237530,-9.7913050074,0.0002773125,-0.0021469268,-0.0000084485,0.0001932443,-0.0005205332
558519.1100237530,-9.7925060414,0.0040835389,0.0021352402,-0.0000301617,0.0000738874,0.0004665978
558519.1200237530,-9.7917299132,-0.0018613289,0.0009060979,0.0000024082,-0.0000237682,-0.0005747712
558519.1300237540,-9.7925448329,0.0062206517,-0.0016765272,-0.0000518750,0.0000738874,0.0003581219
558519.1400237540,-9.7908270322,-0.0033818049,-0.0013898584,-0.0000410183,0.0001389912,-0.0003469717
558519.1500237540,-9.7922128699,0.0071353278,0.0021340978,-0.0000518750,0.0000955887,0.0000543893
558519.1600237540,-9.7915730705,-0.0014034701,0.0016675873,-0.0000084485,0.0000630368,-0.0000215439
558519.1700237540,-9.7931563918,0.0040833293,-0.0028925069,-0.0000084485,0.0000087837,-0.0002276482
558519.1800237540,-9.7920615608,0.0005788233,-0.0012253851,-0.0000301617,0.0000630368,0.0002496459
558519.1900237540,-9.7915764393,0.0016465822,0.0027365507,-0.0000301617,0.0001715430,-0.0004662952
558519.2000237540,-9.7926652924,0.0039308034,0.0012213806,-0.0000518750,0.0001064393,0.0003581219
558519.2100237540,-9.7914515645,-0.0009435976,-0.0019937064,-0.0000410183,0.0000630368,-0.0005422284
558519.2200237541,-9.7931465864,0.0046927426,-0.0013671303,-0.0000193051,-0.0000563201,0.0004340550
558519.2300237539,-9.7912596432,-0.0032326120,0.0018167225,-0.0000084485,0.0001172899,-0.0004771428
558519.2400237540,-9.7928327289,0.0074383666,0.0010717440,-0.0000301617,0.0001498418,0.0002604935
558519.2500237540,-9.7917440264,-0.0029279758,-0.0013820367,-0.0000084485,0.0000847381,-0.0001734102
558519.2600237540,-9.7922349464,0.0056116557,-0.0013743242,-0.0000627316,0.0000196343,-0.0001408674
558519.2700237540,-9.7921868370,-0.0011007785,0.0013677822,-0.0000301617,-0.0000020669,0.0001845604
558519.2800237540,-9.7920546726,0.0025608400,0.0006056388,-0.0000301617,0.0000955887,-0.0004120573
558519.2900237540,-9.7920704272,0.0034766959,-0.0009190402,-0.0000410183,0.0000955887,0.0003798171
558519.3000237540,-9.7912894249,-0.0024684498,-0.0015381434,-0.0000084485,0.0000738874,-0.0005639236
558519.3100237540,-9.7925180258,0.0062191241,0.0016786875,-0.0000410183,0.0000847381,0.0004557502
558519.3200237540,-9.7908074214,-0.0021629783,0.0016608948,-0.0000193051,0.0001064393,-0.0004771428
558519.3300237540,-9.7927002564,0.0078976142,-0.0012169618,-0.0000518750,0.0000738874,0.0001845604
558519.3400237540,-9.7915952330,-0.0038420954,-0.0022987825,-0.0000410183,0.0000413356,-0.0001734102
558519.3500237541,-9.7928244288,0.0049980054,0.0009181181,-0.0000410183,0.0000304849,-0.0001083246
558519.3600237540,-9.7923349781,0.0002707830,0.0025897568,0.0000024082,0.0000738874,0.0001737128
558519.3700237540,-9.7922218583,0.0022560636,-0.0013758588,-0.0000084485,0.0000847381,-0.0004337525
558519.3800237540,-9.7923707090,0.0025602144,-0.0007644115,-0.0000410183,0.0000955887,0.0004123598
558519.3900237540,-9.7909690234,-0.0014006218,0.0008999635,-0.0000301617,0.0001498418,-0.0005639236
558519.4000237540,-9.7928249664,0.0057605011,0.0012234864,-0.0000735882,-0.0000020669,0.0004449026
558519.4100237540,-9.7920503147,-0.0029291569,-0.0015320090,-0.0000193051,0.0000304849,-0.0005096856
558519.4200237540,-9.7925423959,0.0062205129,-0.0013715077,-0.0000301617,0.0000847381,0.0002713411
558519.4300237540,-9.7909551683,-0.0030788345,0.0018142548,-0.0000193051,0.0001606924,-0.0001951054
558519.4400237540,-9.7926742162,0.0062187071,0.0012224270,-0.0000301617,0.0000738874,-0.0000866295
558519.4500237540,-9.7912856260,-0.0009437361,-0.0003173678,-0.0000301617,0.0000413356,0.0001628652
558519.4600237540,-9.7923702574,0.0008827655,-0.0015277276,-0.0000410183,-0.0000020669,-0.0004554476
558519.4700237541,-9.7920606791,0.0034761404,0.0003010379,-0.0000410183,0.0000738874,0.0004232074
558519.4800237539,-9.7915815140,-0.0004880308,0.0010579668,-0.0000301617,0.0001389912,-0.0005856188
558519.4900237540,-9.7928365852,0.0053036842,-0.0004543302,-0.0000410183,0.0000955887,0.0004340550
558519.5000237540,-9.7909765351,-0.0035350959,-0.0010836399,0.0000024082,0.0000413356,-0.0004879904
558519.5100237540,-9.7931384797,0.0066746898,0.0006164034,-0.0000193051,0.0000304849,0.0002062556
558519.5200237540,-9.7914261192,-0.0024699777,0.0004457522,-0.0000627316,0.0000738874,-0.0001300198
558519.5300237540,-9.7926835127,0.0045418137,-0.0007609672,-0.0000410183,0.0000413356,-0.0001734102
558519.5400237540,-9.7917468289,-0.0003354348,-0.0004657923,-0.0000627316,0.0000847381,0.0001954080
558519.5500237540,-9.7914397736,0.0013431258,0.0006000058,-0.0000193051,0.0001498418,-0.0004337525
558519.5600237540,-9.7920588944,0.0030185596,0.0003008286,-0.0000301617,0.0000847381,0.0004123598
558519.5700237540,-9.7912838126,-0.0010963325,-0.0001649278,-0.0000084485,0.0000630368,-0.0005639236
558519.5800237540,-9.7929788631,0.0042350233,0.0003089991,-0.0000193051,-0.0000129176,0.0004123598
558519.5900237540,-9.7908141662,-0.0026200730,0.0005931172,-0.0000410183,0.0000955887,-0.0004879904
558519.6000237541,-9.7931366663,0.0065220934,0.0007688434,-0.0000518750,0.0001715430,0.0002604935
558519.6100237540,-9.7920418425,-0.0035396118,-0.0007697392,-0.0000301617,0.0000738874,-0.0002601910
558519.6200237540,-9.7926852114,0.0059143477,-0.0003028101,-0.0000410183,-0.0000129176,0.0000001513
558519.6300237540,-9.7924895845,-0.0023221055,0.0010647421,-0.0000301617,0.0000304849,0.0000977796
558519.6400237540,-9.7922198728,0.0039333736,-0.0003075232,-0.0000193051,0.0000955887,-0.0004120573
558519.6500237540,-9.7917484703,0.0016470679,0.0002976633,-0.0000518750,0.0001823937,0.0003906647
558519.6600237540,-9.7912844648,-0.0015537743,-0.0004701566,-0.0000193051,0.0000196343,-0.0006181615
558519.6700237540,-9.7932935376,0.0057592502,-0.0001452952,-0.0000518750,-0.0000129176,0.0004557502
558519.6800237540,-9.7909667584,-0.0032306671,0.0002890874,-0.0000410183,0.0001389912,-0.0004879904
558519.6900237540,-9.7925387117,0.0065252889,-0.0007613291,-0.0000301617,0.0001281405,0.0002171032
558519.7000237540,-9.7914171094,-0.0038429283,0.0009026536,-0.0000084485,0.0000630368,-0.0001951054
558519.7100237540,-9.7923692324,0.0053050045,0.0007619417,-0.0000301617,0.0000630368,-0.0000866295
558519.7200237541,-9.7917517029,-0.0003351571,-0.0010758313,-0.0000410183,0.0000413356,0.0001194748
558519.7300237539,-9.7923720135,0.0016453306,-0.0013748691,-0.0000410183,0.0000738874,-0.0004229049
558519.7400237540,-9.7917441338,0.0024092859,0.0012130706,-0.0000735882,0.0000955887,0.0004123598
558519.7500237540,-9.7909695610,-0.0006381261,0.0012053318,-0.0000301617,0.0001823937,-0.0005530760
558519.7600237540,-9.7917730626,0.0057657807,-0.0007680216,-0.0000410183,-0.0000020669,0.0004340550
558519.7700237540,-9.7920454980,-0.0035394034,-0.0012272685,-0.0000084485,-0.0000129176,-0.0004988380
558519.7800237540,-9.7932880400,0.0059114299,0.0006173234,-0.0000193051,0.0000738874,0.0002496459
558519.7900237540,-9.7914170234,-0.0029279751,0.0013606015,-0.0000410183,0.0001823937,-0.0002168006
558519.8000237540,-9.7926906517,0.0063721367,-0.0007601301,-0.0000627316,0.0000738874,-0.0001083246
558519.8100237540,-9.7920466018,-0.0023193964,-0.0007691812,-0.0000410183,0.0000087837,0.0001628652
558519.8200237540,-9.7925117684,0.0014914840,0.0001514275,-0.0000301617,0.0000196343,-0.0004229049
558519.8300237540,-9.7929715808,0.0039296223,0.0010714083,-0.0000518750,0.0000955887,0.0004449026
558519.8400237540,-9.7909769580,-0.0015526627,-0.0001676745,0.0000024082,0.0001606924,-0.0006290091
558519.8500237541,-9.7929956928,0.0066758706,-0.0006049434,-0.0000627316,0.0000304849,0.0004665978
558519.8600237540,-9.7915745757,-0.0044532446,-0.0000114152,-0.0000410183,-0.0000020669,-0.0004337525
558519.8700237540,-9.7937449065,0.0072819492,0.0013843062,-0.0000518750,0.0000413356,0.0001194748
558519.8800237540,-9.7905090963,-0.0026188224,0.0005905798,-0.0000518750,0.0001823937,-0.0000757819
558519.8900237540,-9.7928385420,0.0039313585,-0.0013700165,-0.0000193051,0.0000738874,-0.0002384958
558519.9000237540,-9.7920506515,-0.0000317704,-0.0001580958,-0.0000301617,-0.0000129176,0.0003472743
558519.9100237540,-9.7918950274,0.0004261579,0.0004508838,-0.0000193051,0.0000413356,-0.0005856188
558519.9200237540,-9.7926803948,0.0053041011,0.0000019304,-0.0000518750,0.0001064393,0.0004774454
558519.9300237540,-9.7912750035,-0.0046041738,-0.0007765712,-0.0000193051,0.0001498418,-0.0005530760
558519.9400237540,-9.7922232416,0.0069834259,0.0007614403,-0.0000518750,0.0000304849,0.0003147315
558519.9500237540,-9.7918837526,-0.0027768380,0.0002969091,-0.0000301617,0.0000630368,-0.0002818861
558519.9600237540,-9.7925315154,0.0053049347,-0.0004568676,-0.0000193051,0.0000413356,-0.0000215439
558519.9700237541,-9.7914321831,-0.0021646462,-0.0001641473,-0.0000193051,0.0000738874,0.0000869320
558519.9800237539,-9.7923633406,0.0031697665,0.0004559456,-0.0000084485,0.0001606924,-0.0004012097
558519.9900237540,-9.7922096158,0.0028653380,0.0004545373,-0.0000627316,0.0000630368,0.0003906647
558520.0000237540,-9.7911356141,-0.0018579251,-0.0010816039,-0.0000301617,0.0000196343,-0.0006181615
558520.0100237540,-9.7929848410,0.0054553081,0.0001570474,-0.0000627316,0.0000196343,0.0004557502
558520.0200237540,-9.7903505836,-0.0038384819,0.0007412627,-0.0000084485,0.0001606924,-0.0004554476
558520.0300237540,-9.7929876435,0.0080478490,0.0010732918,-0.0000193051,0.0000955887,0.0001628652
558520.0400237540,-9.7915812058,-0.0036904017,-0.0004685957,-0.0000193051,0.0000630368,-0.0000866295
558520.0500237540,-9.7923749021,0.0033229184,-0.0009165725,-0.0000301617,0.0000196343,-0.0002276482
558520.0600237540,-9.7920414124,0.0010351542,0.0015199998,-0.0000518750,0.0000738874,0.0002821887
558520.0700237540,-9.7917424351,0.0010367519,0.0007549136,-0.0000301617,0.0001932443,-0.0005530760
558520.0800237540,-9.7923754683,0.0037804297,-0.0007638535,-0.0000518750,0.0000196343,0.0004991406
558520.0900237540,-9.7915945521,-0.0030796691,-0.0018409045,-0.0000084485,-0.0000020669,-0.0005747712
558520.1000237541,-9.7931395548,0.0081996812,0.0012271400,-0.0000410183,0.0000738874,0.0003364267
558520.1100237540,-9.7906513170,-0.0030775145,0.0016592075,-0.0000084485,0.0001823937,-0.0002276482
558520.1200237540,-9.7929939654,0.0056083210,-0.0009104512,-0.0000193051,0.0000196343,-0.0001408674
558520.1300237540,-9.7917468863,-0.0009454036,-0.0007710909,-0.0000518750,-0.0000129176,0.0002279508
558520.1400237540,-9.7920547299,0.0019508712,0.0003003403,-0.0000301617,0.0001064393,-0.0004988380
558520.1500237540,-9.7922106910,0.0043903294,0.0010652739,-0.0000518750,0.0001606924,0.0004557502
558520.1600237540,-9.7912821712,-0.0030788352,-0.0009283834,-0.0000193051,0.0000738874,-0.0005856188
558520.1700237540,-9.7928462185,0.0065241773,-0.0010638111,-0.0000301617,-0.0000129176,0.0003906647
558520.1800237540,-9.7915672073,-0.0038436925,0.0012089419,0.0000132648,0.0000738874,-0.0003361241
558520.1900237540,-9.7926802801,0.0065240387,0.0006125275,-0.0000518750,0.0001715430,0.0000001513
558520.2000237540,-9.7912789672,-0.0014015946,0.0002924620,-0.0000735882,0.0000738874,0.0000543893
558520.2100237550,-9.7923718988,0.0028652682,-0.0007642720,-0.0000301617,0.0000196343,-0.0003903621
558520.2200237550,-9.7923573627,0.0019494818,0.0006078973,-0.0000518750,0.0000738874,0.0004232074
558520.2300237550,-9.7912813469,-0.0007914869,0.0002927410,-0.0000084485,0.0001606924,-0.0006398567
558520.2400237550,-9.7925333001,0.0057625155,-0.0004566584,-0.0000410183,0.0000304849,0.0004665978
558520.2500237550,-9.7911169710,-0.0044513688,-0.0000152214,-0.0000084485,0.0000630368,-0.0004988380
558520.2600237550,-9.7935936187,0.0069776595,0.0010778784,-0.0000518750,0.0001064393,0.0002171032
558520.2700237550,-9.7908207963,-0.0018572301,0.0001359367,-0.0000410183,0.0000630368,-0.0001408674
558520.2800237550,-9.7922198728,0.0039333736,-0.0003075232,-0.0000410183,0.0000738874,-0.0001951054
558520.2900237550,-9.7921934384,-0.0000329512,0.0010632510,-0.0000301617,0.0000955887,0.0002496459
558520.3000237549,-9.7916007807,0.0019529553,-0.0001609952,0.0000024082,0.0000413356,-0.0004771428
558520.3100237550,-9.7922089636,0.0033227798,0.0007597661,-0.0000410183,0.0000847381,0.0003689695
558520.3200237550,-9.7912892815,-0.0009435278,-0.0007748971,-0.0000410183,0.0000955887,-0.0005313808
558520.3300237550,-9.7932839043,0.0045387571,0.0004641858,-0.0000627316,0.0000196343,0.0003906647
558520.3400237550,-9.7911247049,-0.0024685189,-0.0000143146,-0.0000193051,0.0000847381,-0.0004554476
558520.3500237550,-9.7931450811,0.0077425171,0.0003118722,-0.0000410183,0.0000955887,0.0002279508
558520.3600237550,-9.7911224113,-0.0039935797,-0.0004725414,-0.0000084485,0.0000413356,-0.0002059530
558520.3700237550,-9.7914637710,0.0053093117,-0.0004657488,-0.0000193051,0.0001172899,-0.0000649343
558520.3800237550,-9.7918956509,0.0002737004,0.0002983042,-0.0000193051,0.0000413356,0.0001628652
558520.3900237550,-9.7917496028,0.0025620905,0.0006031014,-0.0000410183,0.0000847381,-0.0004879904
558520.4000237550,-9.7923621794,0.0025597283,0.0003031568,-0.0000735882,0.0000738874,0.0004232074
558520.4100237550,-9.7912832750,-0.0018588282,-0.0004702961,-0.0000301617,0.0000738874,-0.0005856188
558520.4200237551,-9.7928358469,0.0066760792,0.0003088464,-0.0000410183,0.0000630368,0.0004449026
558520.4300237549,-9.7908136286,-0.0033825687,0.0002877489,-0.0000084485,0.0000955887,-0.0004554476
558520.4400237550,-9.7932935090,0.0060642346,0.0000073541,-0.0000193051,0.0000738874,0.0001737128
558520.4500237550,-9.7917318986,-0.0035386390,-0.0001622377,-0.0000301617,0.0000738874,-0.0001191722
558520.4600237550,-9.7926821508,0.0060666663,0.0001547889,-0.0000518750,0.0000738874,-0.0001625626
558520.4700237550,-9.7911323528,0.0004292842,0.0004445401,-0.0000627316,0.0000413356,0.0001737128
558520.4800237550,-9.7912915752,0.0005815331,-0.0003166702,-0.0000410183,0.0000738874,-0.0004337525
558520.4900237550,-9.7935878990,0.0030125152,-0.0001440133,-0.0000301617,0.0000738874,0.0004340550
558520.5000237550,-9.7912819418,-0.0006389600,0.0002928108,0.0000024082,0.0000738874,-0.0005747712
558520.5100237550,-9.7925259604,0.0060670832,0.0006110494,-0.0000301617,0.0000955887,0.0004123598
558520.5200237550,-9.7906744686,-0.0030761952,-0.0012384779,-0.0000193051,0.0000738874,-0.0004554476
558520.5300237550,-9.7929872493,0.0057604313,0.0000046771,-0.0000410183,0.0000738874,0.0002171032
558520.5400237550,-9.7912826801,-0.0020113551,-0.0004703658,-0.0000193051,0.0000847381,-0.0002276482
558520.5500237549,-9.7925210577,0.0063717899,0.0013737377,-0.0000410183,0.0000738874,-0.0000432391
558520.5600237550,-9.7920422654,-0.0015571785,0.0001462261,-0.0000193051,0.0000847381,0.0000869320
558520.5700237550,-9.7920796663,0.0024097713,-0.0025971358,-0.0000193051,0.0000738874,-0.0003144289
558520.5800237550,-9.7923554920,0.0024068542,0.0010656358,-0.0000301617,0.0000630368,0.0002930363
558520.5900237550,-9.7911231997,0.0005812557,0.0016646879,-0.0000193051,0.0000847381,-0.0005205332
558520.6000237550,-9.7931266100,0.0033191671,0.0004623590,-0.0000627316,0.0000738874,0.0004123598
558520.6100237550,-9.7909946407,-0.0017041480,-0.0024553907,-0.0000410183,0.0000847381,-0.0005313808
558520.6200237550,-9.7928298117,0.0060657633,0.0007660967,-0.0000301617,0.0000630368,0.0003472743
558520.6300237550,-9.7920277006,-0.0021679805,0.0016710447,-0.0000193051,0.0000955887,-0.0004012097
558520.6400237550,-9.7928444051,0.0063715809,-0.0009113711,-0.0000518750,0.0000738874,0.0001845604
558520.6500237550,-9.7911223826,-0.0036885953,-0.0003198921,-0.0000084485,0.0000630368,-0.0001625626
558520.6600237550,-9.7925320243,0.0063724148,0.0000011499,-0.0000410183,0.0000738874,-0.0001191722
558520.6700237551,-9.7923465969,-0.0001860340,0.0009119402,-0.0000627316,0.0000738874,0.0001411700
558520.6800237549,-9.7919028473,0.0014940546,-0.0000061572,-0.0000410183,0.0000847381,-0.0004120573
558520.6900237550,-9.7922157657,0.0022557164,-0.0006133100,-0.0000410183,0.0000738874,0.0003798171
558520.7000237550,-9.7917365146,-0.0007935016,0.0006015667,-0.0000084485,0.0000847381,-0.0005530760
558520.7100237550,-9.7923668241,0.0049998812,0.0009143119,-0.0000410183,0.0000738874,0.0004123598
558520.7200237550,-9.7900575841,-0.0026165994,-0.0001757752,-0.0000193051,0.0000738874,-0.0004771428
558520.7300237550,-9.7929981299,0.0066760095,-0.0009099629,-0.0000518750,0.0000738874,0.0002062556
558520.7400237550,-9.7914304270,-0.0029272113,-0.0003170059,-0.0000410183,0.0000738874,-0.0001951054
558520.7500237550,-9.7926688333,0.0051509493,0.0013744484,-0.0000301617,0.0000738874,-0.0001408674
558520.7600237550,-9.7917322068,-0.0003362681,0.0013643248,-0.0000301617,0.0000847381,0.0002171032
558520.7700237550,-9.7925281753,0.0019498981,-0.0016784803,0.0000024082,0.0000738874,-0.0005096856
558520.7800237550,-9.7925321963,0.0045425085,-0.0009147457,-0.0000627316,0.0000413356,0.0004774454
558520.7900237550,-9.7912656783,-0.0026222960,0.0013594722,-0.0000301617,0.0000847381,-0.0006398567
558520.8000237549,-9.7929750069,0.0063697057,0.0018350732,-0.0000735882,0.0000630368,0.0003906647
558520.8100237550,-9.7912797915,-0.0036889429,-0.0009286624,-0.0000301617,0.0000847381,-0.0003795145
558520.8200237550,-9.7928497880,0.0074393388,-0.0010633926,-0.0000193051,0.0000738874,0.0000543893
558520.8300237550,-9.7914236535,-0.0021651322,0.0009034210,-0.0000301617,0.0000630368,0.0000326941
558520.8400237550,-9.7918978872,0.0024087300,0.0010618296,-0.0000410183,0.0000955887,-0.0003252765
558520.8500237550,-9.7925202119,0.0024069233,-0.0004581930,-0.0000301617,0.0000738874,0.0003581219
558520.8600237550,-9.7908364361,0.0002785634,-0.0007781452,-0.0000193051,0.0000413356,-0.0006181615
558520.8700237550,-9.7925151085,0.0048465207,0.0013730402,-0.0000627316,0.0000847381,0.0004665978
558520.8800237550,-9.7915715151,-0.0043009260,0.0004461838,-0.0000410183,0.0000847381,-0.0004988380
558520.8900237550,-9.7925380021,0.0075926996,-0.0001508018,-0.0000410183,0.0000738874,0.0002496459
558520.9000237550,-9.7915829619,-0.0029278366,-0.0003157371,-0.0000193051,0.0000738874,-0.0001083246
558520.9100237550,-9.7931276852,0.0048441585,0.0010730956,-0.0000301617,0.0000630368,-0.0002384958
558520.9200237551,-9.7919011199,0.0004265050,-0.0003116650,-0.0000301617,0.0000847381,0.0003038839
558520.9300237549,-9.7915979495,-0.0003346012,-0.0009245903,-0.0000518750,0.0000738874,-0.0005747712
558520.9400237550,-9.7929763688,0.0048448532,0.0009193171,-0.0000627316,0.0000738874,0.0004774454
558520.9500237550,-9.7915811485,-0.0030804329,-0.0001632971,-0.0000301617,0.0001064393,-0.0005205332
558520.9600237550,-9.7934471764,0.0069786320,0.0003140609,-0.0000301617,0.0000630368,0.0003255791
558520.9700237550,-9.7914286423,-0.0033847921,-0.0003172152,-0.0000084485,0.0000738874,-0.0003144289
558520.9800237550,-9.7925223622,0.0054569061,0.0007632802,-0.0000301617,0.0000630368,0.0000001513
558520.9900237550,-9.7917292896,-0.0017088715,0.0010586775,-0.0000518750,0.0000738874,0.0000869320
558521.0000237550,-9.7917671708,0.0036305428,-0.0010740177,-0.0000301617,0.0000738874,-0.0004012097
558521.0100237550,-9.7916025942,0.0021055517,-0.0003134352,-0.0000518750,0.0000847381,0.0003906647
558521.0200237550,-9.7915907245,-0.0012499711,-0.0004674796,0.0000241214,0.0000630368,-0.0005747712
558521.0300237550,-9.7929727133,0.0048446449,0.0013768464,-0.0000410183,0.0000738874,0.0004340550
558521.0400237550,-9.7909702992,-0.0020105212,0.0004421552,-0.0000084485,0.0000847381,-0.0004771428
558521.0500237549,-9.7926954684,0.0069823833,-0.0010648706,-0.0000410183,0.0000738874,0.0002604935
558521.0600237550,-9.7917439690,-0.0023180070,-0.0010767382,-0.0000410183,0.0000847381,-0.0002818861
558521.0700237550,-9.7917650993,0.0062228060,0.0004522658,-0.0000735882,0.0000847381,0.0000218465
558521.0800237550,-9.7908025760,-0.0024682405,0.0021182846,-0.0000301617,0.0000630368,0.0000001513
558521.0900237550,-9.7923827220,0.0043908151,-0.0013736135,-0.0000084485,0.0001064393,-0.0002276482
558521.1000237550,-9.7922249762,0.0014937762,-0.0021387564,-0.0000627316,0.0000630368,0.0002604935
558521.1100237550,-9.7918840895,0.0001205485,0.0016708223,0.0000024082,0.0000630368,-0.0005096856
558521.1200237550,-9.7934249351,0.0037750112,0.0015326741,-0.0000518750,0.0000847381,0.0004340550
558521.1300237550,-9.7911398359,-0.0014002055,-0.0013864141,-0.0000410183,0.0000955887,-0.0005747712
558521.1400237550,-9.7923965198,0.0066789966,-0.0019826062,-0.0000410183,0.0000413356,0.0003689695
558521.1500237550,-9.7923202198,-0.0047623275,0.0019774158,-0.0000193051,0.0001064393,-0.0003469717
558521.1600237550,-9.7931251335,0.0060639572,0.0019887122,-0.0000410183,0.0000738874,0.0000543893
558521.1700237551,-9.7922088561,-0.0020144818,-0.0018353412,-0.0000084485,0.0000847381,0.0000001513
558521.1800237549,-9.7922380930,0.0045443839,-0.0022898710,-0.0000301617,0.0000630368,-0.0002601910
558521.1900237550,-9.7908157215,0.0002773829,0.0018145207,-0.0000735882,0.0000738874,0.0002713411
558521.2000237550,-9.7918768644,-0.0007948213,0.0021279330,-0.0000084485,0.0000847381,-0.0005096856
558521.2100237550,-9.7920770286,0.0045445232,-0.0012235714,-0.0000627316,0.0000738874,0.0004557502
558521.2200237550,-9.7911417353,-0.0021625623,-0.0019968019,-0.0000193051,0.0000738874,-0.0005639236
558521.2300237550,-9.7926766532,0.0062188460,0.0009174075,-0.0000301617,0.0000738874,0.0003581219
558521.2400237550,-9.7907972504,-0.0041459671,0.0019650075,-0.0000084485,0.0000738874,-0.0003144289
558521.2500237550,-9.7929986961,0.0071335208,-0.0007572439,-0.0000301617,0.0000955887,0.0000001513
558521.2600237550,-9.7912965926,-0.0009431112,-0.0016899556,-0.0000627316,0.0000738874,0.0000435417
558521.2700237550,-9.7923621794,0.0025597283,0.0003031568,-0.0000193051,0.0000738874,-0.0003469717
558521.2800237560,-9.7926490290,0.0019474674,0.0022880421,-0.0000518750,0.0000738874,0.0004123598
558521.2900237560,-9.7915918570,-0.0003349484,-0.0001620415,0.0000132648,0.0001064393,-0.0006073140
558521.3000237560,-9.7931635308,0.0059136523,-0.0028916698,-0.0000301617,0.0000521862,0.0004557502
558521.3100237560,-9.7915696730,-0.0041485380,0.0007512731,-0.0000193051,0.0000738874,-0.0005205332
558521.3200237560,-9.7929616033,0.0063689419,0.0035126806,-0.0000410183,0.0000847381,0.0002821887
558521.3300237560,-9.7909758255,-0.0024676853,-0.0004731126,-0.0000301617,0.0000847381,-0.0002384958
558521.3400237560,-9.7928487703,0.0053043785,-0.0019794277,-0.0000518750,0.0000738874,-0.0000540867
558521.3500237560,-9.7920343881,-0.0020151064,0.0009085657,-0.0000301617,0.0000630368,0.0001194748
558521.3600237560,-9.7923493421,0.0030164758,0.0021334832,-0.0000193051,0.0000738874,-0.0003469717
558521.3700237561,-9.7916037840,0.0024106055,-0.0003132957,-0.0000410183,0.0000955887,0.0003472743
558521.3800237559,-9.7917614510,-0.0003346016,-0.0022959094,0.0000024082,0.0000630368,-0.0005422284
558521.3900237560,-9.7923554346,0.0030168230,0.0013709344,-0.0000518750,0.0000630368,0.0004340550
558521.4000237560,-9.7909550822,-0.0021638813,0.0022722026,-0.0000410183,0.0000955887,-0.0005313808
558521.4100237560,-9.7926978767,0.0072875066,-0.0012172409,-0.0000410183,0.0000738874,0.0003472743
558521.4200237560,-9.7914353871,-0.0038418867,-0.0013849927,-0.0000084485,0.0000738874,-0.0003252765
558521.4300237560,-9.7923710458,0.0054576009,0.0006095017,-0.0000301617,0.0000738874,0.0000435417
558521.4400237560,-9.7914259758,-0.0009450558,0.0012089985,-0.0000193051,0.0000738874,0.0000001513
558521.4500237560,-9.7925321963,0.0045425085,-0.0009147457,-0.0000410183,0.0000955887,-0.0002493434
558521.4600237560,-9.7922123109,0.0001206173,-0.0012243256,-0.0000953015,0.0000738874,0.0002821887
558521.4700237560,-9.7918878023,-0.0004892120,0.0009079945,-0.0000084485,0.0000738874,-0.0005422284
558521.4800237560,-9.7916016838,0.0053078531,0.0013656370,-0.0000518750,0.0000738874,0.0004774454
558521.4900237561,-9.7911355568,-0.0012479563,-0.0007763053,-0.0000301617,0.0000738874,-0.0005747712
558521.5000237559,-9.7931519406,0.0060654848,-0.0013665025,-0.0000301617,0.0000630368,0.0003364267
558521.5100237560,-9.7911169710,-0.0044513688,-0.0000152214,-0.0000193051,0.0000738874,-0.0003361241
558521.5200237560,-9.7929761967,0.0066747596,0.0018352127,-0.0000627316,0.0000738874,0.0000109989
558521.5300237560,-9.7911282744,-0.0015533574,-0.0000138960,-0.0000410183,0.0000847381,0.0000435417
558521.5400237560,-9.7919179783,0.0025623680,-0.0013782568,-0.0000410183,0.0000738874,-0.0003361241
558521.5500237560,-9.7923549544,0.0016443585,0.0007602675,-0.0000410183,0.0000738874,0.0003581219
558521.5600237560,-9.7917340202,-0.0001836717,0.0012118848,-0.0000084485,0.0000847381,-0.0005747712
558521.5700237560,-9.7928377750,0.0056087380,-0.0004541907,-0.0000410183,0.0000738874,0.0004665978
558521.5800237560,-9.7911266617,-0.0038408445,-0.0009300009,-0.0000193051,0.0000738874,-0.0005422284
558521.5900237560,-9.7932892012,0.0065214682,0.0007701122,-0.0000518750,0.0000738874,0.0002713411
558521.6000237560,-9.7908147324,-0.0021625617,0.0007458363,-0.0000301617,0.0000847381,-0.0002168006
558521.6100237560,-9.7922330756,0.0060690282,-0.0009165856,-0.0000518750,0.0000630368,-0.0001083246
558521.6200237561,-9.7919000448,-0.0010984864,-0.0009224016,-0.0000301617,0.0000630368,0.0001845604
558521.6300237559,-9.7917557240,0.0022574533,-0.0003120967,-0.0000193051,0.0000847381,-0.0004662952
558521.6400237560,-9.7928142292,0.0033200010,0.0013748801,-0.0000301617,0.0000630368,0.0004340550
558521.6500237560,-9.7908237995,-0.0013995799,-0.0000163638,-0.0000193051,0.0000955887,-0.0006181615
558521.6600237560,-9.7926852114,0.0059143477,-0.0003028101,-0.0000518750,0.0000738874,0.0004340550
558521.6700237560,-9.7902016755,-0.0035326639,0.0004351140,-0.0000301617,0.0000738874,-0.0004229049
558521.6800237560,-9.7935971882,0.0078928210,0.0010782970,-0.0000410183,0.0000738874,0.0001628652
558521.6900237560,-9.7911193220,-0.0035362767,0.0001377069,-0.0000084485,0.0000738874,-0.0000866295
558521.7000237560,-9.7926804521,0.0046941323,-0.0003033682,-0.0000084485,0.0000738874,-0.0002384958
558521.7100237560,-9.7920493757,0.0005781289,0.0002997125,-0.0000301617,0.0000738874,0.0003472743
558521.7200237560,-9.7906746907,0.0010411289,0.0007460324,-0.0000301617,0.0000738874,-0.0006290091
558521.7300237560,-9.7932899681,0.0048440887,-0.0001457137,-0.0000518750,0.0000847381,0.0005099882
558521.7400237561,-9.7902108287,-0.0036846354,-0.0007850338,-0.0000410183,0.0000738874,-0.0005639236
558521.7500237559,-9.7928376603,0.0068286756,0.0001564064,-0.0000518750,0.0000738874,0.0002930363
558521.7600237560,-9.7911192360,-0.0026213235,0.0005956547,-0.0000193051,0.0000847381,-0.0001951054
558521.7700237560,-9.7925302682,0.0056098497,-0.0001517086,-0.0000193051,0.0000738874,-0.0001408674
558521.7800237560,-9.7920489528,-0.0014043044,-0.0006162529,-0.0000410183,0.0000738874,0.0002496459
558521.7900237560,-9.7920566294,0.0011885144,-0.0003100475,-0.0000518750,0.0000738874,-0.0005422284
558521.8000237560,-9.7923668527,0.0046948968,0.0007616627,-0.0000410183,0.0000413356,0.0005099882
558521.8100237560,-9.7908184739,-0.0030773065,-0.0001696408,-0.0000193051,0.0000955887,-0.0005856188
558521.8200237560,-9.7936045853,0.0069782844,-0.0002947094,-0.0000518750,0.0000738874,0.0004123598
558521.8300237560,-9.7912724805,-0.0036893595,-0.0000136039,-0.0000084485,0.0000738874,-0.0003252765
558521.8400237560,-9.7926881860,0.0066769823,-0.0003024613,-0.0000301617,0.0000738874,0.0000218465
558521.8500237560,-9.7911258948,-0.0021634650,-0.0000141751,-0.0000410183,0.0000847381,0.0000109989
558521.8600237560,-9.7922205251,0.0034759317,-0.0006127519,-0.0000301617,0.0000738874,-0.0002927337
558521.8700237561,-9.7919095061,0.0019519131,-0.0006159870,-0.0000518750,0.0000738874,0.0003364267
558521.8800237559,-9.7917436823,0.0007318370,0.0004497545,-0.0000301617,0.0000738874,-0.0005639236
558521.8900237560,-9.7931398702,0.0048448529,-0.0004520020,-0.0000301617,0.0000738874,0.0004665978
558521.9000237560,-9.7906647779,-0.0036867195,-0.0003236984,-0.0000193051,0.0000847381,-0.0005639236
558521.9100237560,-9.7926862579,0.0077443235,0.0004605757,-0.0000301617,0.0000738874,0.0003364267
558521.9200237560,-9.7911156378,-0.0032315006,0.0007478854,-0.0000410183,0.0000738874,-0.0003035813
558521.9300237560,-9.7928377463,0.0059137224,-0.0003015414,-0.0000301617,0.0000847381,-0.0000215439
