t(s),acc_x,acc_y,acc_z,gyro_x,gyro_y,gyro_z
558329.0000235760,9.7953659608,-0.0026415099,0.0003860921,0.0000349781,0.0000738874,-0.0001191722
558329.0100235760,9.7956544589,0.0025454475,0.0008434556,0.0000349781,0.0000738874,0.0004340550
558329.0200235760,9.7957912966,0.0040718975,-0.0003771936,0.0000349781,0.0000738874,-0.0004120573
558329.0300235760,9.7949022348,-0.0029480229,-0.0005252997,0.0000349781,0.0000955887,0.0005642262
558329.0400235760,9.7957813264,0.0081897770,0.0003872386,0.0000024082,0.0000955887,-0.0004229049
558329.0500235760,9.7950716281,-0.0050832606,0.0005400233,0.0000349781,0.0000413356,0.0005099882
558329.0600235760,9.7957788894,0.0081899159,0.0000822191,0.0000241214,0.0000738874,-0.0002601910
558329.0700235760,9.7947604084,-0.0056941327,-0.0005252866,0.0000241214,0.0000738874,0.0002496459
558329.0800235770,9.7959363557,0.0088002322,0.0009962879,0.0000349781,0.0000738874,0.0000326941
558329.0900235770,9.7946039671,-0.0018822100,0.0008503139,0.0000458347,0.0000738874,-0.0000757819
558329.1000235770,9.7953377703,0.0020873800,-0.0008318235,0.0000349781,0.0000413356,0.0004123598
558329.1100235770,9.7956350775,0.0037664961,-0.0009861034,-0.0000084485,0.0000955887,-0.0003903621
558329.1200235770,9.7946015588,-0.0015770867,0.0006979436,0.0000458347,0.0000738874,0.0005533786
558329.1300235770,9.7963890003,0.0078874326,-0.0000755051,0.0000132648,0.0000738874,-0.0004229049
558329.1400235770,9.7939977339,-0.0056972591,-0.0005189429,0.0000349781,0.0000738874,0.0005099882
558329.1500235770,9.7965331491,0.0094134660,-0.0003810958,0.0000458347,0.0000738874,-0.0002276482
558329.1600235770,9.7941533581,-0.0052393308,0.0000900366,0.0000458347,0.0000738874,0.0001303224
558329.1700235771,9.7956389624,0.0062061630,0.0006926200,0.0000349781,0.0000738874,0.0002171032
558329.1800235769,9.7953497833,0.0002567793,-0.0002226215,0.0000241214,0.0000738874,-0.0002818861
558329.1900235770,9.7948897702,0.0005600267,-0.0003711856,0.0000241214,0.0000847381,0.0005316834
558329.2000235770,9.7959396671,0.0051402112,-0.0003779740,0.0000241214,0.0000738874,-0.0004337525
558329.2100235770,9.7947617416,-0.0044742646,0.0002378202,0.0000458347,0.0000738874,0.0005316834
558329.2200235770,9.7971481054,0.0088057205,-0.0000814303,0.0000349781,0.0000738874,-0.0003252765
558329.2300235770,9.7939911324,-0.0046294318,-0.0008234741,0.0000349781,0.0000738874,0.0003689695
558329.2400235770,9.7962358992,0.0083443187,0.0000784826,0.0000132648,0.0000738874,-0.0001083246
558329.2500235770,9.7947696189,-0.0049321925,0.0010001598,0.0000349781,0.0000738874,0.0000977796
558329.2600235770,9.7953236070,0.0069679636,-0.0002195523,0.0000241214,0.0000738874,0.0001737128
558329.2700235770,9.7955047266,-0.0000477187,-0.0000715200,0.0000241214,0.0000847381,-0.0001625626
558329.2800235770,9.7953583129,0.0002562932,0.0008449468,0.0000349781,0.0000738874,0.0004123598
558329.2900235771,9.7956374859,0.0034613728,-0.0008337332,0.0000349781,0.0000738874,-0.0003361241
558329.3000235769,9.7948987800,-0.0008129239,0.0000857159,0.0000349781,0.0000521862,0.0005099882
558329.3100235770,9.7957969089,0.0054440148,0.0009960220,0.0000241214,0.0001064393,-0.0003903621
558329.3200235770,9.7941546626,-0.0043244471,0.0007004942,0.0000241214,0.0000304849,0.0005099882
558329.3300235770,9.7962377126,0.0081917223,0.0002309226,0.0000241214,0.0000955887,-0.0003144289
558329.3400235770,9.7939916987,-0.0050869431,-0.0009761932,0.0000566913,0.0000738874,0.0003255791
558329.3500235770,9.7957843870,0.0083420956,0.0008448376,0.0000349781,0.0000955887,-0.0000649343
558329.3600235770,9.7946183312,-0.0046279028,0.0013065875,0.0000675479,0.0000413356,0.0000326941
558329.3700235770,9.7959377963,0.0046828387,-0.0008357126,0.0000241214,0.0000630368,0.0002604935
558329.3800235770,9.7948836777,0.0005603739,-0.0011337344,-0.0000084485,0.0000955887,-0.0002818861
558329.3900235770,9.7950543755,-0.0006599800,0.0005420462,0.0000458347,0.0000738874,0.0005099882
558329.4000235770,9.7956443740,0.0054433895,0.0009972908,0.0000349781,0.0000955887,-0.0004120573
558329.4100235770,9.7946032289,-0.0032546051,0.0000871373,0.0000349781,0.0000304849,0.0005208358
558329.4200235771,9.7959264069,0.0066658970,-0.0012923350,0.0000458347,0.0000847381,-0.0003144289
558329.4300235769,9.7939935121,-0.0052395395,-0.0008237532,0.0000458347,0.0000738874,0.0003472743
558329.4400235770,9.7957832545,0.0092571183,0.0011502757,0.0000024082,0.0000738874,-0.0001408674
558329.4500235770,9.7950699007,-0.0040157110,0.0008455311,0.0000458347,0.0000847381,0.0001737128
558329.4600235770,9.7950105165,0.0058997190,-0.0017426007,0.0000132648,0.0000630368,0.0000435417
558329.4700235770,9.7952049823,-0.0017266959,-0.0002222596,0.0000241214,0.0000955887,-0.0000866295
558329.4800235770,9.7951982448,0.0043734086,0.0019156672,0.0000566913,0.0000521862,0.0003581219
558329.4900235770,9.7951920375,0.0031538182,0.0005425214,0.0000241214,0.0000738874,-0.0003686669
558329.5000235770,9.7950493008,-0.0027945930,-0.0011365377,0.0000458347,0.0000521862,0.0005642262
558329.5100235770,9.7957799359,0.0063599401,-0.0006811668,0.0000132648,0.0000955887,-0.0004229049
558329.5200235770,9.7944634739,-0.0034084517,0.0016134338,0.0000241214,0.0000521862,0.0004774454
558329.5300235770,9.7967074451,0.0075829350,0.0014469155,0.0000241214,0.0000738874,-0.0002818861
558329.5400235771,9.7944491887,-0.0063050049,-0.0015905965,0.0000566913,0.0000738874,0.0002604935
558329.5500235769,9.7960772718,0.0083440406,-0.0006827974,0.0000241214,0.0000955887,0.0000001513
558329.5600235770,9.7956783990,-0.0020307072,0.0016039117,0.0000675479,0.0000738874,-0.0000323915
558329.5700235770,9.7951993199,0.0028484172,0.0013049306,0.0000349781,0.0000738874,0.0003581219
558329.5800235770,9.7953401213,0.0011722880,-0.0009847518,0.0000024082,0.0000738874,-0.0004012097
558329.5900235770,9.7953532381,-0.0018783198,-0.0008336372,0.0000241214,0.0000738874,0.0005859213
558329.6000235770,9.7959459604,0.0072747548,0.0014531196,0.0000349781,0.0000738874,-0.0004662952
558329.6100235770,9.7946194637,-0.0055429255,0.0010011495,0.0000349781,0.0000521862,0.0005099882
558329.6200235770,9.7968375093,0.0083473058,-0.0009941606,0.0000458347,0.0000738874,-0.0002168006
558329.6300235770,9.7942894861,-0.0047802915,-0.0017411399,0.0000458347,0.0000738874,0.0001845604
558329.6400235770,9.7965591032,0.0068196057,0.0016003452,0.0000132648,0.0000738874,0.0000869320
558329.6500235770,9.7955240506,-0.0018787361,0.0014527405,0.0000349781,0.0000738874,-0.0001083246
558329.6600235770,9.7960919726,0.0027009613,-0.0016004369,0.0000241214,0.0000413356,0.0002930363
558329.6700235771,9.7950223862,0.0025441963,-0.0018966451,0.0000132648,0.0000955887,-0.0002384958
558329.6800235769,9.7947524237,0.0001010569,0.0013074812,0.0000566913,0.0000738874,0.0004340550
558329.6900235770,9.7958070512,0.0031560416,0.0011474854,0.0000349781,0.0000738874,-0.0003035813
558329.7000235770,9.7952043874,-0.0015741690,-0.0002221899,0.0000241214,0.0000413356,0.0004449026
558329.7100235770,9.7960903599,0.0049884484,-0.0006843321,0.0000349781,0.0000738874,-0.0003252765
558329.7200235770,9.7945905062,-0.0024914150,-0.0011325920,0.0000241214,0.0000738874,0.0004665978
558329.7300235770,9.7965677762,0.0083440416,0.0034311598,0.0000241214,0.0000847381,-0.0003035813
558329.7400235770,9.7941587696,-0.0060021043,0.0003947074,0.0000458347,0.0000304849,0.0003472743
558329.7500235770,9.7960639255,0.0089547732,-0.0020551062,0.0000349781,0.0000847381,-0.0001517150
558329.7600235770,9.7952053765,-0.0040141136,-0.0012908743,0.0000458347,0.0000630368,0.0001737128
558329.7700235770,9.7951922669,0.0055936934,0.0017637155,0.0000349781,0.0000847381,0.0000977796
558329.7800235770,9.7955198862,-0.0008110477,0.0014532288,0.0000132648,0.0000738874,-0.0001300198
558329.7900235771,9.7953298930,0.0025453080,-0.0015941630,0.0000458347,0.0000738874,0.0004232074
558329.8000235769,9.7957851754,0.0037672603,-0.0012923917,0.0000241214,0.0000847381,-0.0004229049
558329.8100235770,9.7947697336,-0.0037122549,0.0016107568,0.0000458347,0.0000521862,0.0006184641
558329.8200235770,9.7967003061,0.0094132580,0.0014477525,0.0000241214,0.0000847381,-0.0004771428
558329.8300235770,9.7942912709,-0.0052378723,-0.0017413492,0.0000675479,0.0000413356,0.0004557502
558329.8400235770,9.7965336580,0.0083459858,-0.0008391134,0.0000132648,0.0000738874,-0.0000866295
558329.8500235770,9.7944682046,-0.0049336514,0.0014602265,0.0000132648,0.0000847381,0.0000109989
558329.8600235770,9.7951909911,0.0049837940,0.0013059072,0.0000132648,0.0000413356,0.0002713411
558329.8700235770,9.7957923144,0.0019369373,-0.0012932287,0.0000241214,0.0001064393,-0.0002927337
558329.8800235770,9.7955016373,-0.0005050217,-0.0006817683,0.0000566913,0.0000521862,0.0004991406
558329.8900235770,9.7959542892,0.0051393779,0.0014521430,0.0000349781,0.0001064393,-0.0003903621
558329.9000235770,9.7946074793,-0.0034073403,0.0005445968,0.0000241214,0.0000304849,0.0005316834
558329.9100235770,9.7966813762,0.0089568577,-0.0011451226,0.0000241214,0.0000847381,-0.0003361241
558329.9200235771,9.7942973634,-0.0052382195,-0.0009788004,0.0000132648,0.0000955887,0.0003906647
558329.9300235769,9.7956416002,0.0083409149,0.0020661844,0.0000024082,0.0000847381,-0.0001408674
558329.9400235770,9.7944615458,-0.0044757929,0.0008503967,0.0000566913,0.0000738874,0.0000652368
558329.9500235770,9.7960831922,0.0065137870,-0.0008361443,0.0000458347,0.0000738874,0.0002387983
558329.9600235770,9.7953431245,0.0007146378,-0.0008324513,0.0000132648,0.0000738874,-0.0002493434
558329.9700235770,9.7953581695,-0.0012686288,0.0000817004,0.0000241214,0.0000955887,0.0004991406
558329.9800235770,9.7957956904,0.0054440842,0.0008435123,0.0000024082,0.0000738874,-0.0004337525
558329.9900235770,9.7941505268,-0.0029517743,0.0008536318,0.0000132648,0.0000413356,0.0005208358
558330.0000235770,9.7962334048,0.0077344888,-0.0005318354,0.0000458347,0.0000847381,-0.0003686669
558330.0100235770,9.7944498983,-0.0052375942,-0.0009800691,0.0000566913,0.0000738874,0.0004123598
558330.0200235770,9.7965397792,0.0086506231,0.0000760847,0.0000241214,0.0000738874,-0.0001734102
558330.0300235770,9.7947647735,-0.0046269304,0.0005427700,0.0000349781,0.0000738874,0.0001954080
558330.0400235771,9.7959337179,0.0066654803,-0.0003772765,0.0000132648,0.0000738874,0.0000218465
558330.0500235769,9.7955105324,-0.0030979099,-0.0008354639,-0.0001061581,0.0000738874,-0.0000649343
558330.0600235770,9.7953378850,0.0033073176,-0.0002212264,-0.0006381330,0.0000630368,0.0002713411
558330.0700235770,9.7951853787,0.0036116767,-0.0000673084,-0.0022340575,0.0000955887,-0.0002384958
558330.0800235770,9.7955029705,0.0007148464,0.0000813385,-0.0040145447,0.0000738874,0.0004015123
558330.0900235770,9.7954770450,0.0036136911,-0.0017474532,-0.0054259065,0.0001172899,-0.0003795145
558330.1000235770,9.7950386496,0.0005608603,-0.0008299836,-0.0066092791,0.0000847381,0.0004015123
558330.1100235770,9.7973102163,0.0069758839,0.0002214834,-0.0075320926,0.0001281405,-0.0003903621
558330.1200235770,9.7956715681,-0.0034027551,0.0000781863,-0.0081400638,0.0000847381,0.0004123598
558330.1300235770,9.7965408830,0.0074306160,-0.0003820027,-0.0091823002,0.0001064393,-0.0004012097
558330.1400235770,9.7938355369,-0.0047823757,-0.0012798044,-0.0097359883,0.0000847381,0.0002713411
558330.1500235780,9.7950109466,0.0104744850,0.0005471384,-0.0105176656,0.0001281405,-0.0002059530
558330.1600235780,9.7944561342,-0.0037130194,0.0005457260,-0.0113861960,0.0000955887,0.0000869320
558330.1700235780,9.7959348791,0.0060554421,-0.0005300653,-0.0121027335,0.0001498418,-0.0000215439
558330.1800235780,9.7947323326,0.0002546948,-0.0011326051,-0.0132318230,0.0001389912,-0.0002493434
558330.1900235780,9.7952022945,0.0020857826,0.0013045819,-0.0142306329,0.0001172899,0.0003038839
558330.2000235780,9.7956380808,0.0033088459,-0.0008338029,-0.0149797403,0.0001389912,-0.0004879904
558330.2100235780,9.7950500677,-0.0011172135,-0.0002207119,-0.0160111201,0.0001172899,0.0004123598
558330.2200235780,9.7960796801,0.0080389173,-0.0005304272,-0.0168470805,0.0001389912,-0.0005530760
558330.2300235780,9.7946038525,-0.0031021476,0.0002397168,-0.0175853313,0.0001281405,0.0003581219
558330.2400235781,9.7963830225,0.0091077174,-0.0002274568,-0.0187687039,0.0001389912,-0.0004012097
558330.2500235779,9.7946024046,-0.0055419533,-0.0011339871,-0.0194418150,0.0001389912,0.0000543893
558330.2600235780,9.7957710121,0.0086478439,-0.0006801204,-0.0203537718,0.0001389912,-0.0000540867
558330.2700235780,9.7952031976,-0.0012691152,-0.0002220504,-0.0214068649,0.0002149455,-0.0002927337
558330.2800235780,9.7951991478,0.0010185108,0.0003890350,-0.0219496963,0.0001281405,0.0002821887
558330.2900235780,9.7950227016,0.0058990247,-0.0002175031,-0.0229810761,0.0001715430,-0.0006290091
558330.3000235780,9.7948943002,-0.0031000638,-0.0015929378,-0.0239581728,0.0001498418,0.0004232074
558330.3100235780,9.7953189910,0.0097131009,0.0005442521,-0.0245335741,0.0001932443,-0.0005639236
558330.3200235780,9.7952248726,-0.0040152246,0.0011492818,-0.0256843768,0.0001823937,0.0001737128
558330.3300235780,9.7966861355,0.0077366423,-0.0011456807,-0.0265311939,0.0001823937,-0.0003795145
558330.3400235780,9.7945867934,-0.0031011755,-0.0018954198,-0.0272260182,0.0001823937,-0.0000215439
558330.3500235780,9.7959356461,0.0077328216,0.0003857606,-0.0285939535,0.0001715430,-0.0001083246
558330.3600235780,9.7950627617,-0.0021853880,0.0008463681,-0.0291367849,0.0001823937,-0.0003035813
558330.3700235781,9.7948790904,0.0036104956,-0.0002172807,-0.0297664694,0.0001715430,0.0000869320
558330.3800235779,9.7957778930,0.0040726613,-0.0020548009,-0.0308195625,0.0002149455,-0.0005747712
558330.3900235780,9.7951996567,-0.0000489693,-0.0000689826,-0.0314492470,0.0002149455,0.0002821887
558330.4000235780,9.7967018614,0.0065158021,0.0002263491,-0.0325457666,0.0002149455,-0.0006723995
558330.4100235780,9.7936831741,-0.0029530946,-0.0003626401,-0.0334685800,0.0001606924,0.0002821887
558330.4200235780,9.7965233723,0.0091090371,-0.0017538232,-0.0340548380,0.0002583480,-0.0005639236
558330.4300235780,9.7949082413,-0.0038633233,-0.0002206988,-0.0352599239,0.0002257962,0.0000001513
558330.4400235780,9.7947208931,0.0081849835,0.0013111783,-0.0362587338,0.0001606924,-0.0002168006
558330.4500235780,9.7942933424,-0.0026456091,-0.0002150658,-0.0369535581,0.0002583480,-0.0004446000
558330.4600235780,9.7947160978,0.0025430152,-0.0020466173,-0.0379632246,0.0001932443,0.0001303224
558330.4700235780,9.7959366352,0.0052928770,-0.0006829238,-0.0385603392,0.0002691987,-0.0007157899
558330.4800235780,9.7946034009,-0.0014246987,0.0010030329,-0.0393745864,0.0002149455,0.0002713411
558330.4900235781,9.7957818640,0.0074272813,0.0000818703,-0.0405362457,0.0002366468,-0.0007483327
558330.5000235779,9.7945945559,-0.0047790410,-0.0017436774,-0.0412419266,0.0002149455,0.0001194748
558330.5100235780,9.7959163793,0.0101738077,-0.0008332014,-0.0421321702,0.0002800493,-0.0005422284
558330.5200235780,9.7946032002,-0.0035595895,-0.0000655120,-0.0431744067,0.0002474974,-0.0001083246
558330.5300235780,9.7960990042,0.0062078999,0.0009938333,-0.0436955249,0.0002257962,-0.0003252765
558330.5400235780,9.7948980417,-0.0021853189,-0.0006774607,-0.0447269047,0.0002474974,-0.0003469717
558330.5500235780,9.7960806405,0.0052939883,-0.0017517608,-0.0456714314,0.0002691987,-0.0000866295
558330.5600235780,9.7950377179,0.0036107737,0.0005439994,-0.0462794026,0.0002691987,-0.0006398567
558330.5700235780,9.7955156931,-0.0000483437,0.0013010678,-0.0474302054,0.0002474974,0.0001520176
558330.5800235780,9.7954825713,0.0040708552,-0.0008321854,-0.0483095923,0.0002583480,-0.0007591803
558330.5900235780,9.7936625455,-0.0020369610,-0.0024973581,-0.0486895744,0.0002583480,0.0001086272
558330.6000235780,9.7963859971,0.0083450828,-0.0002278056,-0.0500466530,0.0003234518,-0.0007591803
558330.6100235780,9.7937019319,-0.0043266007,0.0013143395,-0.0507957604,0.0002583480,0.0000652368
558330.6200235781,9.7956233512,0.0086469408,-0.0000688127,-0.0517185739,0.0002691987,-0.0006073140
558330.6300235779,9.7952077562,-0.0046242213,-0.0012911533,-0.0526196742,0.0003017505,-0.0002059530
558330.6400235780,9.7956209716,0.0092570485,-0.0000685336,-0.0531842189,0.0002800493,-0.0003578193
558330.6500235780,9.7952146730,-0.0023372202,0.0006925199,-0.0541613155,0.0002908999,-0.0004988380
558330.6600235780,9.7957935616,0.0022418522,-0.0009880697,-0.0553446881,0.0002691987,-0.0001083246
558330.6700235780,9.7948808465,0.0028479305,-0.0003701392,-0.0559526594,0.0003234518,-0.0007049423
558330.6800235780,9.7956500364,0.0008682764,-0.0005298995,-0.0569731825,0.0002908999,0.0000326941
558330.6900235780,9.7968598079,0.0057536539,0.0005297511,-0.0578742828,0.0003234518,-0.0008242658
558330.7000235780,9.7953471169,-0.0021829570,-0.0017488352,-0.0586885300,0.0003017505,0.0000109989
558330.7100235780,9.7968538588,0.0072789230,0.0005304487,-0.0596113435,0.0003343024,-0.0007483327
558330.7200235780,9.7950560456,-0.0023374983,-0.0000687602,-0.0602627412,0.0003126011,-0.0001517150
558330.7300235780,9.7959272025,0.0086482608,-0.0002238599,-0.0610552752,0.0003126011,-0.0005856188
558330.7400235781,9.7950559022,-0.0038624203,-0.0008320065,-0.0622386478,0.0003126011,-0.0003252765
558330.7500235779,9.7950202359,0.0055941791,-0.0006751719,-0.0629768986,0.0003126011,-0.0004229049
558330.7600235780,9.7944395339,0.0011677030,0.0008529777,-0.0638997120,0.0003343024,-0.0005639236
558330.7700235780,9.7951937362,0.0017812843,0.0000843643,-0.0647465291,0.0003126011,-0.0001842578
558330.7800235780,9.7951845544,0.0013243285,-0.0012884328,-0.0653870703,0.0003343024,-0.0007917230
558330.7900235780,9.7950471792,0.0005603742,0.0002375847,-0.0665378730,0.0003234518,-0.0000323915
558330.8000235780,9.7957859997,0.0060546085,-0.0000712673,-0.0674389732,0.0003885555,-0.0009652845
558330.8100235780,9.7950566118,-0.0027950096,-0.0002214792,-0.0680686577,0.0003234518,0.0000218465
558330.8200235780,9.7965311636,0.0077361559,-0.0014494314,-0.0690891809,0.0003777049,-0.0008568086
558330.8300235780,9.7949075604,-0.0046257496,-0.0006785768,-0.0698817148,0.0003451530,-0.0001734102
558330.8400235780,9.7962353903,0.0094117988,0.0005365002,-0.0706742487,0.0003560036,-0.0006723995
558330.8500235780,9.7953664696,-0.0037089900,-0.0000719254,-0.0718467647,0.0003994061,-0.0005205332
558330.8600235780,9.7953239438,0.0040705771,-0.0015934655,-0.0724873058,0.0003017505,-0.0002710386
558330.8700235781,9.7944189627,0.0026938055,-0.0009764418,-0.0733884061,0.0004211074,-0.0009218942
558330.8800235779,9.7945998314,-0.0005095372,0.0010034514,-0.0744414991,0.0003343024,0.0000001513
558330.8900235780,9.7962455039,0.0068188412,0.0005353143,-0.0749517607,0.0004102568,-0.0010520653
558330.9000235780,9.7942967685,-0.0050856926,-0.0009787306,-0.0759397140,0.0003451530,-0.0000540867
558330.9100235780,9.7951487447,0.0092560059,-0.0018948445,-0.0769928070,0.0003885555,-0.0008893514
558330.9200235780,9.7946080742,-0.0035598672,0.0005445270,-0.0776659180,0.0003885555,-0.0003252765
558330.9300235780,9.7971565202,0.0075852969,0.0003755409,-0.0788818605,0.0004211074,-0.0006181615
558330.9400235780,9.7950579164,-0.0018801259,0.0003889784,-0.0795658282,0.0003777049,-0.0006398567
558330.9500235780,9.7948717507,0.0033059279,-0.0012849885,-0.0801195163,0.0003777049,-0.0002710386
558330.9600235780,9.7959371441,0.0042253969,-0.0011409414,-0.0812051792,0.0004536593,-0.0009327418
558330.9700235780,9.7946030067,0.0008627190,0.0020716475,-0.0820085698,0.0003777049,-0.0001300198
558330.9800235780,9.7968530058,0.0046865904,-0.0008433250,-0.0828553869,0.0004319580,-0.0010520653
558330.9900235781,9.7948926301,-0.0014225455,-0.0009821314,-0.0840604727,0.0004102568,-0.0001517150
558331.0000235779,9.7954701354,0.0078838893,-0.0005254220,-0.0847444404,0.0004211074,-0.0009869797
558331.0100235780,9.7933828349,-0.0044795449,-0.0005133099,-0.0857866768,0.0004211074,-0.0002818861
558331.0200235780,9.7950102657,0.0097120587,0.0000892603,-0.0866009240,0.0003994061,-0.0007700279
558331.0300235780,9.7959832967,-0.0038593630,0.0006854786,-0.0871980386,0.0004428086,-0.0006398567
558331.0400235780,9.7956177963,0.0078847923,-0.0011367297,-0.0883488413,0.0004102568,-0.0004554476
558331.0500235780,9.7951887762,0.0008666089,-0.0009836226,-0.0893476512,0.0004645099,-0.0009110466
558331.0600235780,9.7953516541,0.0007141517,0.0002351170,-0.0899881923,0.0003994061,-0.0002818861
558331.0700235780,9.7947235523,0.0040675205,-0.0003683124,-0.0909761456,0.0004428086,-0.0010520653
558331.0800235780,9.7944381720,-0.0003571495,-0.0000627784,-0.0916275433,0.0004319580,-0.0001951054
558331.0900235780,9.7954766795,0.0062060932,-0.0005261893,-0.0923657941,0.0004536593,-0.0010954557
558331.1000235780,9.7944391325,-0.0031020785,-0.0012841121,-0.0935925933,0.0004536593,-0.0002601910
558331.1100235780,9.7966978404,0.0091084125,0.0009900838,-0.0942874175,0.0004862111,-0.0009761321
558331.1200235781,9.7955232837,-0.0035561156,0.0005369146,-0.0950690948,0.0004319580,-0.0005639236
558331.1300235779,9.7957763950,0.0075800860,-0.0005280990,-0.0962090409,0.0004862111,-0.0006181615
558331.1400235780,9.7958078683,-0.0011138094,-0.0008370946,-0.0968387254,0.0004319580,-0.0008676562
558331.1500235780,9.7957948088,0.0025467672,-0.0006829107,-0.0977506823,0.0004862111,-0.0004012097
558331.1600235780,9.7954875313,0.0049855307,0.0002358014,-0.0987494922,0.0004753605,-0.0011063033
558331.1700235780,9.7944472965,-0.0005101625,0.0010047202,-0.0993683201,0.0004536593,-0.0002493434
558331.1800235780,9.7962351036,0.0063619548,-0.0009899925,-0.1005408360,0.0004970617,-0.0012039316
558331.1900235780,9.7941351665,-0.0043233361,-0.0017396619,-0.1013442266,0.0004645099,-0.0002927337
558331.2000235780,9.7959291880,0.0103255708,0.0008444757,-0.1018653448,0.0004862111,-0.0010846081
558331.2100235780,9.7941480611,-0.0032566198,0.0003959630,-0.1031681403,0.0004536593,-0.0004988380
558331.2200235780,9.7959288439,0.0066657581,-0.0009873155,-0.1038846779,0.0005079124,-0.0008568086
558331.2300235790,9.7956540862,-0.0014193496,-0.0011409849,-0.1047966347,0.0004862111,-0.0007483327
558331.2400235790,9.7941062449,0.0055903580,-0.0005150497,-0.1059582941,0.0004645099,-0.0006398567
558331.2500235790,9.7953516541,0.0007141517,0.0002351170,-0.1064685556,0.0005296136,-0.0010412177
558331.2600235790,9.7958099111,0.0011734694,0.0005365396,-0.1074130824,0.0004645099,-0.0003903621
558331.2700235790,9.7965521864,0.0045326046,-0.0003833280,-0.1084553188,0.0005621655,-0.0012473220
558331.2800235790,9.7941329875,-0.0015783376,-0.0006708380,-0.1090524334,0.0004536593,-0.0002818861
558331.2900235790,9.7965299451,0.0077362254,-0.0016019412,-0.1099101071,0.0005621655,-0.0012581696
558331.3000235790,9.7942976501,-0.0021883755,0.0005476923,-0.1108437773,0.0004753605,-0.0003903621
558331.3100235790,9.7966935899,0.0092611477,0.0005326242,-0.1115386015,0.0005404642,-0.0010954557
558331.3200235791,9.7953700391,-0.0046241515,-0.0000723440,-0.1129173935,0.0005296136,-0.0007049423
558331.3300235790,9.7957666756,0.0078856259,-0.0015955278,-0.1135579346,0.0005296136,-0.0007591803
558331.3400235790,9.7956572901,0.0002578910,0.0000798605,-0.1142310456,0.0005513149,-0.0010520653
558331.3500235790,9.7959588191,0.0014792874,0.0002303908,-0.1153275652,0.0005187630,-0.0004771428
558331.3600235790,9.7959285858,0.0039208985,-0.0023611590,-0.1160441027,0.0005730161,-0.0012581696
558331.3700235790,9.7950502111,0.0004077084,0.0005425345,-0.1169777728,0.0005187630,-0.0003903621
558331.3800235790,9.7959399252,0.0078850707,0.0009958694,-0.1178680164,0.0005621655,-0.0013449503
558331.3900235790,9.7935311480,-0.0040212000,-0.0008193889,-0.1185519841,0.0005404642,-0.0004229049
558331.4000235790,9.7968314454,0.0086526374,-0.0016040601,-0.1196376470,0.0005730161,-0.0012256268
558331.4100235790,9.7942969119,-0.0035607706,-0.0002154843,-0.1205713171,0.0005621655,-0.0006507043
558331.4200235790,9.7957892610,0.0083418179,0.0014548767,-0.1212552848,0.0005296136,-0.0009435894
558331.4300235790,9.7952056059,-0.0015742384,-0.0000696801,-0.1223518043,0.0005621655,-0.0010086749
558331.4400235791,9.7963934156,0.0030074045,-0.0019078544,-0.1232420479,0.0005730161,-0.0006181615
558331.4500235789,9.7954904772,0.0039179117,0.0000828034,-0.1239368722,0.0005838667,-0.0013124075
558331.4600235790,9.7944497909,0.0000996674,0.0016150382,-0.1250225352,0.0005296136,-0.0004337525
558331.4700235790,9.7962429522,0.0055990425,-0.0003803023,-0.1257065028,0.0005838667,-0.0014100359
558331.4800235790,9.7939754352,-0.0031036071,-0.0020428546,-0.1265641765,0.0005730161,-0.0004771428
558331.4900235790,9.7963787721,0.0092604526,-0.0006849164,-0.1277041226,0.0006164186,-0.0013124075
558331.5000235790,9.7947714323,-0.0050847889,0.0011525998,-0.1281058179,0.0005838667,-0.0006832471
558331.5100235790,9.7965277375,0.0101762394,-0.0006857666,-0.1289960615,0.0006055680,-0.0010520653
558331.5200235790,9.7951970764,-0.0015737524,-0.0011372484,-0.1301468642,0.0006055680,-0.0010412177
558331.5300235790,9.7950231531,0.0042215758,-0.0009808192,-0.1309611114,0.0006055680,-0.0007157899
558331.5400235790,9.7953444864,0.0022394903,0.0000833048,-0.1320902008,0.0006055680,-0.0013341027
558331.5500235790,9.7939884733,-0.0005119689,0.0008560166,-0.1327307420,0.0005730161,-0.0005096856
558331.5600235790,9.7959317611,0.0052931547,-0.0012929628,-0.1331758638,0.0006272692,-0.0014642738
558331.5700235791,9.7951988898,-0.0017263487,-0.0009848084,-0.1345546557,0.0006164186,-0.0005205332
558331.5800235790,9.7960900231,0.0078858349,0.0006895811,-0.1352711932,0.0006272692,-0.0013991883
558331.5900235790,9.7941491650,-0.0044766268,-0.0000621243,-0.1359985874,0.0006381199,-0.0007049423
558331.6000235790,9.7972897884,0.0100269083,-0.0008446898,-0.1371493901,0.0006272692,-0.0011822364
558331.6100235790,9.7956600927,-0.0023346500,-0.0008363839,-0.1377899312,0.0006598211,-0.0009652845
558331.6200235790,9.7956406898,0.0051386134,0.0003871122,-0.1387887411,0.0006164186,-0.0008676562
558331.6300235790,9.7945841629,0.0013212719,-0.0000632798,-0.1397224113,0.0006381199,-0.0013341027
558331.6400235790,9.7948825452,0.0014753965,-0.0008282963,-0.1403195259,0.0006164186,-0.0006181615
558331.6500235790,9.7960758812,0.0065142036,-0.0017512028,-0.1414594720,0.0006815223,-0.0015510546
558331.6600235790,9.7949192652,-0.0032539795,0.0014571876,-0.1424582819,0.0006272692,-0.0005205332
558331.6700235790,9.7971608854,0.0086524992,0.0014435975,-0.1431965327,0.0006598211,-0.0015185118
558331.6800235790,9.7948931390,-0.0024900256,-0.0014401490,-0.1443147655,0.0006164186,-0.0007049423
558331.6900235791,9.7956080769,0.0081903322,-0.0022041585,-0.1449878765,0.0006706717,-0.0013015599
558331.7000235789,9.7947575198,-0.0040165450,-0.0000669900,-0.1456827008,0.0006598211,-0.0010195225
558331.7100235790,9.7953448592,0.0062042875,0.0020677453,-0.1467575071,0.0006489705,-0.0009978273
558331.7200235790,9.7953450240,0.0014769946,-0.0002220635,-0.1474089048,0.0006489705,-0.0013449503
558331.7300235790,9.7953274560,0.0025454468,-0.0018991825,-0.1482448653,0.0006598211,-0.0007049423
558331.7400235790,9.7944141460,0.0033040520,-0.0012811823,-0.1493522415,0.0006923730,-0.0015510546
558331.7500235790,9.7949169142,-0.0023388874,0.0016101159,-0.1500470658,0.0006923730,-0.0006507043
558331.7600235790,9.7960919799,0.0092581605,0.0016052675,-0.1510241624,0.0006706717,-0.0015944450
558331.7700235790,9.7944268901,-0.0037113529,-0.0031145082,-0.1520446856,0.0006815223,-0.0007049423
558331.7800235790,9.7969864173,0.0086531238,-0.0013003094,-0.1527177966,0.0007140742,-0.0014534263
558331.7900235790,9.7950753983,-0.0038635313,0.0016081496,-0.1537274631,0.0007249248,-0.0009978273
558331.8000235790,9.7959485121,0.0084945535,0.0023687362,-0.1545417103,0.0006489705,-0.0011496936
558331.8100235790,9.7948781514,0.0001032098,-0.0020490022,-0.1550194020,0.0006923730,-0.0013015599
558331.8200235791,9.7956246198,0.0026996409,-0.0028167088,-0.1563547674,0.0007032236,-0.0008242658
558331.8300235790,9.7950389077,0.0033057199,0.0005438598,-0.1571581580,0.0007357755,-0.0015944450
558331.8400235790,9.7953758809,-0.0008121590,0.0025220658,-0.1580158317,0.0007032236,-0.0007266375
558331.8500235790,9.7950034922,0.0089499796,-0.0011311665,-0.1591666344,0.0007032236,-0.0016595305
558331.8600235790,9.7939759154,-0.0044760716,-0.0026535215,-0.1596986092,0.0007032236,-0.0007374851
558331.8700235790,9.7956203480,0.0091045910,-0.0002211131,-0.1605237131,0.0007574767,-0.0015402070
558331.8800235790,9.7943145085,-0.0043242384,0.0016142840,-0.1615768061,0.0007032236,-0.0009869797
558331.8900235790,9.7957861718,0.0078845149,0.0008446284,-0.1622607737,0.0007032236,-0.0013124075
558331.9000235790,9.7958084058,-0.0018763051,-0.0011424629,-0.1632595836,0.0007249248,-0.0012798648
558331.9100235790,9.7956278238,0.0043768815,-0.0015958634,-0.1641172574,0.0007466261,-0.0009652845
558331.9200235790,9.7954988921,0.0026974880,0.0005397746,-0.1646818021,0.0007574767,-0.0016052926
558331.9300235790,9.7955108764,0.0005619029,0.0009963273,-0.1658108915,0.0007249248,-0.0007917230
558331.9400235791,9.7963882621,0.0065150376,-0.0008386817,-0.1665165724,0.0007466261,-0.0016920733
558331.9500235789,9.7938182270,-0.0009690639,-0.0015830800,-0.1673308196,0.0007140742,-0.0008242658
558331.9600235790,9.7963894806,0.0065149681,-0.0006861720,-0.1685359055,0.0007900286,-0.0016595305
558331.9700235790,9.7939962645,-0.0018848500,0.0011604083,-0.1693392961,0.0007357755,-0.0009001990
558331.9800235790,9.7956209716,0.0092570485,-0.0000685336,-0.1702946795,0.0007140742,-0.0015293594
558331.9900235790,9.7955043251,-0.0043175003,-0.0022086098,-0.1710980700,0.0008008792,-0.0011388460
558332.0000235790,9.7954610396,0.0083418867,-0.0014402713,-0.1718906040,0.0007574767,-0.0012907123
558332.0100235790,9.7953619110,-0.0003538839,0.0009971775,-0.1732476826,0.0008117298,-0.0014208835
558332.0200235790,9.7955050993,0.0039170784,0.0019129205,-0.1738122274,0.0007249248,-0.0010629129
558332.0300235790,9.7950259270,0.0013240504,-0.0020497129,-0.1744853384,0.0007683273,-0.0016378353
558332.0400235790,9.7951790568,0.0011721488,-0.0020510514,-0.1753538687,0.0007683273,-0.0009435894
558332.0500235790,9.7953362149,0.0049848360,0.0003895799,-0.1756687110,0.0008117298,-0.0017354637
558332.0600235790,9.7950731334,-0.0020334860,0.0022190257,-0.1752670157,0.0007574767,-0.0008351134
558332.0700235791,9.7962473173,0.0066662448,0.0006877543,-0.1747676107,0.0007900286,-0.0018005492
558332.0800235790,9.7949056323,-0.0056930908,-0.0014416139,-0.1742790624,0.0007574767,-0.0008676562
558332.0900235790,9.7968376240,0.0095672434,-0.0003835635,-0.1741053563,0.0008117298,-0.0016486829
558332.1000235790,9.7949283324,-0.0040169612,0.0022193876,-0.1740727865,0.0007574767,-0.0010737605
558332.1100235790,9.7959416526,0.0068175212,0.0006903616,-0.1741162130,0.0007574767,-0.0013883407
558332.1200235790,9.7947419373,-0.0012707827,-0.0006757734,-0.1741922094,0.0007466261,-0.0013557979
558332.1300235790,9.7948682099,0.0045260738,-0.0011319207,-0.1742356359,0.0008008792,-0.0011713888
558332.1400235790,9.7956592183,0.0013252322,0.0008428976,-0.1742899190,0.0007791780,-0.0014968166
558332.1500235790,9.7955091490,0.0016294524,0.0013018351,-0.1742030660,0.0007574767,-0.0010412177
558332.1600235790,9.7953359855,0.0025449608,-0.0008316142,-0.1742899190,0.0007683273,-0.0016378353
558332.1700235790,9.7947419947,-0.0006608139,-0.0003704749,-0.1742573492,0.0007683273,-0.0009110466
558332.1800235790,9.7956389337,0.0059011786,0.0005399708,-0.1742464925,0.0008008792,-0.0017246161
558332.1900235791,9.7952134545,-0.0023371508,0.0005400101,-0.1742682058,0.0007574767,-0.0008893514
558332.2000235789,9.7962491021,0.0062086641,0.0006875451,-0.1742573492,0.0007574767,-0.0016378353
558332.2100235790,9.7939886954,-0.0046292929,-0.0011284937,-0.1742790624,0.0007791780,-0.0010195225
558332.2200235790,9.7957758288,0.0080375973,-0.0003753799,-0.1741922094,0.0007683273,-0.0014425787
558332.2300235790,9.7949259527,-0.0034068536,0.0022196666,-0.1742899190,0.0008117298,-0.0013015599
558332.2400235790,9.7954923767,0.0046802685,0.0006931912,-0.1743333456,0.0007574767,-0.0011822364
558332.2500235790,9.7948800509,0.0008655666,-0.0014386144,-0.1743659154,0.0007683273,-0.0015619022
558332.2600235790,9.7955066260,0.0007146381,0.0005388678,-0.1742899190,0.0007574767,-0.0008893514
558332.2700235790,9.7956430982,0.0048334902,0.0005394825,-0.1743116323,0.0008117298,-0.0017463113
558332.2800235790,9.7956698407,-0.0023352055,0.0003836942,-0.1743333456,0.0007466261,-0.0008676562
558332.2900235790,9.7960922880,0.0060557896,0.0000787050,-0.1742790624,0.0008008792,-0.0017246161
558332.3000235800,9.7932206666,-0.0032596771,-0.0011215222,-0.1743333456,0.0007466261,-0.0009327418
558332.3100235800,9.7962517111,0.0080384316,0.0019084602,-0.1743659154,0.0008225805,-0.0015835974
558332.3200235800,9.7949300884,-0.0047795264,0.0020665291,-0.1743224889,0.0007574767,-0.0010520653
558332.3300235800,9.7960771571,0.0071241030,-0.0012933945,-0.1743550588,0.0007574767,-0.0015076642
558332.3400235800,9.7950522754,-0.0035572276,-0.0011368865,-0.1743333456,0.0007574767,-0.0011496936
558332.3500235800,9.7950155052,0.0071193789,-0.0005219645,-0.1743442022,0.0007683273,-0.0013341027
558332.3600235800,9.7955276775,-0.0021839288,0.0017576205,-0.1743659154,0.0007683273,-0.0014100359
558332.3700235800,9.7961157765,0.0031570838,0.0016024772,-0.1743442022,0.0007574767,-0.0010629129
558332.3800235800,9.7957802440,0.0031575692,-0.0022077292,-0.1744419119,0.0007574767,-0.0016920733
558332.3900235801,9.7947395577,-0.0006606750,-0.0006754944,-0.1743984853,0.0007683273,-0.0008134182
558332.4000235799,9.7961086949,0.0055973756,0.0019086129,-0.1743659154,0.0007683273,-0.0017788541
558332.4100235800,9.7953749992,-0.0037094761,0.0009956429,-0.1743767721,0.0007683273,-0.0008676562
558332.4200235800,9.7975978328,0.0092655243,-0.0008475760,-0.1743767721,0.0007900286,-0.0016920733
558332.4300235800,9.7944584279,-0.0052380803,0.0000874992,-0.1743659154,0.0007466261,-0.0010303701
558332.4400235800,9.7954804497,0.0074258225,0.0005419371,-0.1743442022,0.0007683273,-0.0013883407
558332.4500235800,9.7956728727,-0.0024878713,0.0006886439,-0.1743333456,0.0008117298,-0.0014208835
558332.4600235800,9.7955008776,0.0043747981,0.0016081102,-0.1743333456,0.0007357755,-0.0010303701
558332.4700235800,9.7960986887,0.0028530716,-0.0006853086,-0.1743442022,0.0007900286,-0.0017246161
558332.4800235800,9.7939828609,-0.0018840862,-0.0005171990,-0.1743550588,0.0007357755,-0.0007808755
558332.4900235800,9.7956220754,0.0080370415,-0.0005266210,-0.1743767721,0.0008117298,-0.0018330920
558332.5000235800,9.7952369717,-0.0049308722,0.0022164316,-0.1743984853,0.0007466261,-0.0008785038
558332.5100235800,9.7962389885,0.0088016217,0.0006887309,-0.1744093420,0.0008008792,-0.0015510546
558332.5200235799,9.7945950935,-0.0055415367,-0.0020490457,-0.1744093420,0.0007357755,-0.0012581696
558332.5300235800,9.7962489587,0.0046837421,-0.0000757013,-0.1744093420,0.0007683273,-0.0011605412
558332.5400235800,9.7956701561,0.0010196228,0.0020628361,-0.1743984853,0.0007683273,-0.0015835974
558332.5500235800,9.7959606039,0.0010217067,0.0002301816,-0.1744093420,0.0007574767,-0.0009001990
558332.5600235800,9.7959334885,0.0042256052,-0.0015984706,-0.1744093420,0.0007683273,-0.0017571589
558332.5700235800,9.7941366144,-0.0018835303,-0.0003659580,-0.1744419119,0.0007791780,-0.0008242658
558332.5800235800,9.7956463882,0.0074256839,0.0022182757,-0.1743442022,0.0007900286,-0.0017246161
558332.5900235800,9.7950826233,-0.0047789011,0.0020652603,-0.1743767721,0.0007574767,-0.0009218942
558332.6000235800,9.7969966456,0.0072801038,-0.0006908981,-0.1744310552,0.0007466261,-0.0015944450
558332.6100235800,9.7942884110,-0.0032553001,-0.0011304033,-0.1744419119,0.0007574767,-0.0011496936
558332.6200235800,9.7950162148,0.0081867895,0.0000885628,-0.1744201986,0.0007466261,-0.0012907123
558332.6300235800,9.7955301432,-0.0018790833,0.0022152893,-0.1744636251,0.0007900286,-0.0014859690
558332.6400235801,9.7958044421,0.0013262741,-0.0000734297,-0.1744310552,0.0007357755,-0.0009869797
558332.6500235799,9.7956326118,0.0034616506,-0.0014437722,-0.1744310552,0.0008117298,-0.0016920733
558332.6600235800,9.7949024355,-0.0008131322,0.0005432452,-0.1744310552,0.0007249248,-0.0008025706
558332.6700235800,9.7954822344,0.0069682417,0.0005417278,-0.1744310552,0.0008008792,-0.0018330920
558332.6800235800,9.7947761630,-0.0066099886,0.0009993924,-0.1744201986,0.0007466261,-0.0008351134
558332.6900235800,9.7974465738,0.0098747984,-0.0003884990,-0.1744527685,0.0007683273,-0.0015944450
558332.7000235800,9.7938465035,-0.0047830006,0.0000927834,-0.1743550588,0.0007574767,-0.0012581696
558332.7100235800,9.7962436618,0.0066664531,0.0002302251,-0.1742464925,0.0007791780,-0.0011279984
558332.7200235800,9.7945913879,0.0004059021,0.0003938309,-0.1743442022,0.0007900286,-0.0016378353
558332.7300235800,9.7961202778,-0.0008079911,0.0002280758,-0.1744093420,0.0007683273,-0.0008568086
558332.7400235800,9.7954869651,0.0054430420,0.0003885205,-0.1744093420,0.0007574767,-0.0018113968
558332.7500235800,9.7943005961,-0.0032559945,0.0003946943,-0.1744093420,0.0007466261,-0.0008134182
558332.7600235800,9.7968570054,0.0083461948,0.0014459955,-0.1744093420,0.0007683273,-0.0017137685
558332.7700235799,9.7947544019,-0.0047788323,-0.0008298876,-0.1744093420,0.0007791780,-0.0010303701
558332.7800235800,9.7968496657,0.0080416271,0.0003782877,-0.1744636251,0.0007683273,-0.0014859690
558332.7900235800,9.7950699007,-0.0040157110,0.0008455311,-0.1744527685,0.0007574767,-0.0012473220
558332.8000235800,9.7947236956,0.0055924425,0.0003949339,-0.1743767721,0.0007357755,-0.0012039316
558332.8100235800,9.7955041603,0.0004097926,0.0000811990,-0.1744527685,0.0008117298,-0.0015293594
558332.8200235800,9.7956609743,0.0005626670,0.0006900390,-0.1744527685,0.0007574767,-0.0009218942
558332.8300235800,9.7957985503,0.0034615121,0.0002325664,-0.1745070516,0.0008117298,-0.0017463113
558332.8400235800,9.7944447735,-0.0014249768,0.0002417528,-0.1744853384,0.0007140742,-0.0008242658
558332.8500235800,9.7957830825,0.0074272119,0.0002343801,-0.1745070516,0.0008008792,-0.0017571589
558332.8600235800,9.7943041082,-0.0047811248,0.0000889772,-0.1744093420,0.0007574767,-0.0008893514
558332.8700235800,9.7965500361,0.0075825874,0.0008381452,-0.1744201986,0.0007683273,-0.0015835974
558332.8800235800,9.7944602413,-0.0053906766,0.0002399392,-0.1743984853,0.0007357755,-0.0011605412
558332.8900235801,9.7951668790,0.0077300424,-0.0003704445,-0.1743659154,0.0007466261,-0.0012690172
558332.9000235799,9.7947450553,-0.0005084953,0.0000871241,-0.1744636251,0.0007900286,-0.0014968166
558332.9100235800,9.7956645152,-0.0006574789,0.0005369712,-0.1744527685,0.0007791780,-0.0009110466
558332.9200235800,9.7961000793,0.0046829085,0.0003830967,-0.1744961950,0.0007683273,-0.0017788541
558332.9300235800,9.7942947042,-0.0011207565,0.0007006904,-0.1745070516,0.0007466261,-0.0008242658
558332.9400235800,9.7960802463,0.0075814060,-0.0006831462,-0.1744201986,0.0007466261,-0.0017463113
558332.9500235800,9.7952228585,-0.0059975190,-0.0000717031,-0.1744853384,0.0008008792,-0.0009001990
558332.9600235800,9.7963963114,0.0078870160,0.0008395534,-0.1745504781,0.0007357755,-0.0016269878
558332.9700235800,9.7943084160,-0.0043238912,0.0008517352,-0.1745396215,0.0007791780,-0.0011713888
558332.9800235800,9.7950125020,0.0075770291,-0.0006742650,-0.1745070516,0.0007357755,-0.0012581696
558332.9900235800,9.7956735249,-0.0020304294,0.0009938727,-0.1744853384,0.0008008792,-0.0014751214
558333.0000235800,9.7953559905,0.0014763697,0.0011505243,-0.1744093420,0.0007466261,-0.0009978273
558333.0100235800,9.7956393279,0.0036137609,-0.0005286439,-0.1747133276,0.0007683273,-0.0016920733
558333.0200235799,9.7944405804,-0.0006622728,0.0000895919,-0.1743550588,0.0007466261,-0.0008242658
558333.0300235800,9.7956339737,0.0049865031,-0.0005280161,-0.1743984853,0.0007683273,-0.0017680065
558333.0400235800,9.7947738693,-0.0050849278,0.0014576193,-0.1744201986,0.0007791780,-0.0009110466
558333.0500235800,9.7962396121,0.0089540791,0.0008413105,-0.1744636251,0.0007900286,-0.0016595305
558333.0600235800,9.7938392785,-0.0038676308,-0.0003643273,-0.1745179083,0.0007466261,-0.0010629129
558333.0700235800,9.7957848672,0.0069696311,0.0002341708,-0.1745179083,0.0007683273,-0.0013883407
558333.0800235800,9.7944597037,-0.0046281809,0.0005453075,-0.1744853384,0.0007574767,-0.0014100359
558333.0900235800,9.7958045855,0.0028511961,0.0006898167,-0.1744853384,0.0007791780,-0.0010412177
558333.1000235800,9.7950395600,0.0037631617,0.0008490886,-0.1744853384,0.0007466261,-0.0017680065
558333.1100235800,9.7949035680,-0.0017281548,0.0002378071,-0.1745179083,0.0007574767,-0.0007266375
558333.1200235800,9.7957841863,0.0062072049,-0.0002237073,-0.1745396215,0.0007900286,-0.0018222444
558333.1300235800,9.7946200012,-0.0063054212,0.0006957812,-0.1745070516,0.0007466261,-0.0008893514
558333.1400235801,9.7962408592,0.0092589941,0.0011464695,-0.1744636251,0.0007466261,-0.0015944450
558333.1500235799,9.7946128335,-0.0047800826,0.0005439690,-0.1744527685,0.0007574767,-0.0012039316
558333.1600235800,9.7957901355,0.0046819357,-0.0002244048,-0.1744093420,0.0007466261,-0.0012147792
558333.1700235800,9.7961189733,-0.0017228748,-0.0003823818,-0.1744201986,0.0008008792,-0.0015727498
558333.1800235800,9.7956579998,0.0013253016,0.0006903878,-0.1744853384,0.0007683273,-0.0009001990
558333.1900235800,9.7963985190,0.0054470020,-0.0000766212,-0.1745504781,0.0007574767,-0.0017571589
558333.2000235800,9.7950651127,-0.0031004801,0.0006934398,-0.1745179083,0.0007357755,-0.0008025706
558333.2100235800,9.7959470355,0.0057497633,0.0008423830,-0.1745504781,0.0007683273,-0.0017463113
558333.2200235800,9.7944505506,-0.0047801523,-0.0006748404,-0.1744961950,0.0007683273,-0.0009652845
558333.2300235800,9.7966977544,0.0081934593,0.0005321359,-0.1744636251,0.0007683273,-0.0015727498
558333.2400235800,9.7949239959,-0.0047791792,0.0013039803,-0.1744201986,0.0007574767,-0.0011496936
558333.2500235800,9.7954767081,0.0065110776,-0.0003735400,-0.1744636251,0.0007466261,-0.0013124075
558333.2600235800,9.7958145270,-0.0015716679,-0.0002272648,-0.1744961950,0.0007900286,-0.0014425787
558333.2700235799,9.7967210135,0.0028548783,0.0008347140,-0.1744636251,0.0007357755,-0.0009869797
558333.2800235800,9.7956562437,0.0020878668,0.0008432464,-0.1744527685,0.0007466261,-0.0016920733
558333.2900235800,9.7949131727,-0.0032536323,0.0006946388,-0.1743767721,0.0007357755,-0.0008351134
558333.3000235800,9.7954821771,0.0063582729,0.0002364292,-0.1744093420,0.0007683273,-0.0018005492
558333.3100235800,9.7949161186,-0.0043212513,0.0005416408,-0.1743550588,0.0007574767,-0.0008676562
558333.3200235800,9.7970082931,0.0080419052,0.0011395677,-0.1744527685,0.0007574767,-0.0016486829
558333.3300235800,9.7947610320,-0.0055416752,-0.0003727071,-0.1744636251,0.0007249248,-0.0010737605
558333.3400235800,9.7956256449,0.0071218800,-0.0005270395,-0.1744961950,0.0007466261,-0.0013991883
558333.3500235800,9.7953732431,-0.0029469109,0.0011485014,-0.1745070516,0.0007683273,-0.0013774931
558333.3600235800,9.7961066521,0.0033100968,0.0005349787,-0.1745287649,0.0007574767,-0.0010737605
558333.3700235810,9.7962662973,0.0011754147,0.0003802236,-0.1745939047,0.0007900286,-0.0017137685
558333.3800235810,9.7946045047,-0.0026447057,0.0005449456,-0.1745504781,0.0007249248,-0.0007917230
558333.3900235810,9.7962345947,0.0074294349,-0.0005319749,-0.1745396215,0.0007900286,-0.0018656348
558333.4000235810,9.7950680299,-0.0044730835,0.0003877925,-0.1745287649,0.0007683273,-0.0008025706
558333.4100235810,9.7967039329,0.0091080653,0.0017526325,-0.1745287649,0.0007466261,-0.0016378353
558333.4200235810,9.7947664436,-0.0063044487,-0.0000680364,-0.1744201986,0.0007357755,-0.0011388460
558333.4300235810,9.7954754896,0.0065111470,-0.0005260498,-0.1744419119,0.0007466261,-0.0013015599
558333.4400235810,9.7953678889,-0.0015741687,0.0011491292,-0.1744310552,0.0007900286,-0.0014968166
558333.4500235810,9.7956695612,0.0011721498,0.0020629059,-0.1744419119,0.0007791780,-0.0009544369
558333.4600235811,9.7960993697,0.0036154978,-0.0002274306,-0.1744419119,0.0007357755,-0.0017788541
558333.4700235809,9.7945916674,-0.0031014532,-0.0012853808,-0.1744853384,0.0007466261,-0.0007808755
558333.4800235810,9.7963932795,0.0080396818,0.0005346037,-0.1745070516,0.0007574767,-0.0017788541
558333.4900235810,9.7947804708,-0.0061527550,0.0017621505,-0.1744961950,0.0007574767,-0.0009218942
558333.5000235810,9.7962449090,0.0069713681,0.0005353841,-0.1745396215,0.0007574767,-0.0015619022
558333.5100235810,9.7938349420,-0.0046298488,-0.0012797347,-0.1745396215,0.0007466261,-0.0012581696
558333.5200235810,9.7951679828,0.0065100354,-0.0008285318,-0.1745070516,0.0007791780,-0.0011713888
558333.5300235810,9.7947694541,-0.0002048997,0.0032899686,-0.1745070516,0.0007683273,-0.0015944450
558333.5400235810,9.7967346965,-0.0006532408,0.0008331096,-0.1745287649,0.0007357755,-0.0009110466
558333.5500235810,9.7951720038,0.0039174250,-0.0015922665,-0.1744636251,0.0007574767,-0.0017463113
558333.5600235810,9.7941316543,-0.0027982058,-0.0014339448,-0.1744093420,0.0007466261,-0.0008351134
558333.5700235810,9.7956560789,0.0068151596,0.0031330552,-0.1744853384,0.0007900286,-0.0017571589
558333.5800235810,9.7946370890,-0.0060014089,0.0029835671,-0.1744419119,0.0007466261,-0.0009110466
558333.5900235811,9.7960729926,0.0081917914,-0.0012929062,-0.1745070516,0.0007357755,-0.0015185118
558333.6000235809,9.7944353336,-0.0046267922,-0.0025048877,-0.1744636251,0.0007683273,-0.0012473220
558333.6100235810,9.7957987224,0.0052914184,0.0011484620,-0.1745070516,0.0007357755,-0.0012364744
558333.6200235810,9.7946157007,-0.0002054555,0.0031387276,-0.1745396215,0.0007574767,-0.0015185118
558333.6300235810,9.7959654206,0.0004114601,0.0005349221,-0.1745287649,0.0007466261,-0.0009544369
558333.6400235810,9.7956216166,0.0031572911,-0.0029690093,-0.1745287649,0.0007574767,-0.0018113968
558333.6500235810,9.7938405830,-0.0029527471,0.0002461302,-0.1745070516,0.0007683273,-0.0007808755
558333.6600235810,9.7947427402,0.0072687804,0.0035984061,-0.1745070516,0.0007249248,-0.0017680065
558333.6700235810,9.7941594506,-0.0052396780,0.0008525854,-0.1744310552,0.0007574767,-0.0009544369
558333.6800235810,9.7968253529,0.0086529846,-0.0023666089,-0.1745070516,0.0007900286,-0.0015619022
558333.6900235810,9.7936855250,-0.0038681867,-0.0005155684,-0.1745179083,0.0007683273,-0.0012364744
558333.7000235810,9.7956663071,0.0054421396,0.0037424664,-0.1745179083,0.0007466261,-0.0011713888
558333.7100235811,9.7941513225,-0.0009694104,0.0019221069,-0.1745070516,0.0007574767,-0.0016269878
558333.7200235809,9.7956402310,0.0002588631,-0.0020552761,-0.1744636251,0.0007574767,-0.0008785038
558333.7300235810,9.7956236881,0.0057495543,-0.0014427259,-0.1744961950,0.0007683273,-0.0018005492
558333.7400235810,9.7950833043,-0.0040164748,0.0025231384,-0.1744961950,0.0007357755,-0.0008134182
558333.7500235810,9.7958103699,0.0060532198,0.0029789279,-0.1744961950,0.0007574767,-0.0017137685
558333.7600235810,9.7944534965,-0.0058477713,-0.0008278384,-0.1743767721,0.0007249248,-0.0009869797
558333.7700235810,9.7959143652,0.0081915133,-0.0020541863,-0.1743659154,0.0008117298,-0.0015185118
558333.7800235810,9.7947636697,-0.0034069233,0.0010008573,-0.1744527685,0.0007466261,-0.0012147792
558333.7900235810,9.7955106543,0.0046792269,0.0029808376,-0.1745179083,0.0007466261,-0.0012364744
558333.8000235810,9.7955161733,-0.0014208082,0.0006904009,-0.1746047613,0.0007249248,-0.0015076642
558333.8100235810,9.7959363484,0.0022430330,-0.0022094165,-0.1745830480,0.0007683273,-0.0009761321
558333.8200235810,9.7960908401,0.0036159839,-0.0012949989,-0.1745179083,0.0008008792,-0.0016920733
558333.8300235810,9.7943249949,-0.0029523989,0.0035975387,-0.1745179083,0.0007357755,-0.0008351134
558333.8400235811,9.7958060907,0.0059009706,0.0023688191,-0.1745070516,0.0007466261,-0.0017788541
558333.8500235809,9.7941381697,-0.0047809863,-0.0015873614,-0.1744419119,0.0007574767,-0.0008893514
558333.8600235810,9.7966789105,0.0086520122,-0.0016027914,-0.1745070516,0.0007683273,-0.0015944450
558333.8700235810,9.7944742398,-0.0055439674,0.0019174768,-0.1744853384,0.0007574767,-0.0011605412
558333.8800235810,9.7955021821,0.0052896818,0.0022185678,-0.1744310552,0.0007249248,-0.0013124075
558333.8900235810,9.7955016086,-0.0008100061,-0.0008344176,-0.1743984853,0.0007791780,-0.0014751214
558333.9000235810,9.7959485335,0.0022423386,-0.0006843189,-0.1744961950,0.0007683273,-0.0009869797
558333.9100235810,9.7958087786,0.0020884920,0.0008419776,-0.1745396215,0.0008117298,-0.0017354637
558333.9200235810,9.7943128385,-0.0026467201,0.0022250904,-0.1745179083,0.0007140742,-0.0008134182
558333.9300235810,9.7953290186,0.0062051902,0.0000851185,-0.1745179083,0.0007574767,-0.0018005492
558333.9400235810,9.7955170478,-0.0050806904,-0.0009888805,-0.1744961950,0.0007574767,-0.0008893514
558333.9500235810,9.7970053185,0.0088045397,0.0011399165,-0.1745504781,0.0007900286,-0.0015835974
558333.9600235811,9.7938671608,-0.0053941499,0.0023801507,-0.1745396215,0.0007466261,-0.0012147792
558333.9700235809,9.7959476304,0.0055972364,0.0008423133,-0.1745396215,0.0007249248,-0.0012364744
558333.9800235810,9.7953430385,-0.0002003154,-0.0012903991,-0.1745396215,0.0007900286,-0.0015510546
558333.9900235810,9.7958110722,0.0005634312,0.0003837508,-0.1744853384,0.0007683273,-0.0008893514
558334.0000235810,9.7961115261,0.0033098191,0.0011450177,-0.1744636251,0.0007466261,-0.0018113968
558334.0100235810,9.7940045934,-0.0040202268,0.0011594317,-0.1747133276,0.0007249248,-0.0007917230
558334.0200235810,9.7957630775,0.0084958030,-0.0017477585,-0.1744419119,0.0007574767,-0.0017788541
558334.0300235810,9.7946169119,-0.0067627242,0.0000855329,-0.1744527685,0.0007574767,-0.0009652845
558334.0400235810,9.7962600973,0.0065130235,0.0022127822,-0.1744961950,0.0008008792,-0.0014642738
558334.0500235810,9.7949168569,-0.0029488562,0.0013048174,-0.1744961950,0.0007249248,-0.0013341027
558334.0600235810,9.7956345113,0.0042240074,-0.0008333844,-0.1744961950,0.0007466261,-0.0011605412
558334.0700235810,9.7956584800,-0.0000471629,0.0000797210,-0.1744636251,0.0007900286,-0.0014968166
558334.0800235810,9.7968897258,-0.0000427856,0.0014421589,-0.1744527685,0.0007683273,-0.0010520653
558334.0900235811,9.7951943598,0.0019337418,0.0002369438,-0.1744853384,0.0007574767,-0.0016595305
558334.1000235809,9.7945852667,0.0001012648,-0.0005213671,-0.1744853384,0.0007249248,-0.0008785038
558334.1100235810,9.7953307460,0.0051376406,-0.0002203893,-0.1745070516,0.0007900286,-0.0017788541
558334.1200235810,9.7947792236,-0.0064576700,0.0014569915,-0.1744310552,0.0007357755,-0.0008025706
558334.1300235810,9.7965542866,0.0074298522,0.0012956047,-0.1745070516,0.0007574767,-0.0017137685
558334.1400235810,9.7943010189,-0.0052384278,-0.0005212711,-0.1744961950,0.0007140742,-0.0010737605
558334.1500235810,9.7951686064,0.0066624928,-0.0006759523,-0.1745179083,0.0007574767,-0.0013449503
558334.1600235810,9.7946202593,-0.0035605616,0.0020696246,-0.1744853384,0.0007574767,-0.0014425787
558334.1700235810,9.7953566141,0.0016288271,0.0013031038,-0.1745179083,0.0007466261,-0.0009652845
558334.1800235810,9.7954933945,0.0025453083,-0.0002228439,-0.1745287649,0.0007574767,-0.0017680065
558334.1900235810,9.7947454208,-0.0031008974,-0.0011341398,-0.1744527685,0.0007140742,-0.0008025706
558334.2000235810,9.7954876173,0.0059004839,0.0006937493,-0.1745179083,0.0007900286,-0.0018005492
558334.2100235811,9.7943240559,-0.0064596847,0.0017658172,-0.1745179083,0.0007357755,-0.0008893514
558334.2200235809,9.7974628659,0.0081964468,0.0008308118,-0.1745504781,0.0007466261,-0.0016378353
558334.2300235810,9.7946086118,-0.0043223629,0.0002391587,-0.1745721914,0.0007574767,-0.0011713888
558334.2400235810,9.7954856892,0.0048331426,-0.0000692878,-0.1745504781,0.0007357755,-0.0012473220
558334.2500235810,9.7955240220,-0.0021837205,0.0013000912,-0.1745179083,0.0007900286,-0.0015402070
558334.2600235810,9.7952009899,0.0011708989,0.0006941243,-0.1744310552,0.0007357755,-0.0009435894
558334.2700235810,9.7962506287,0.0030062238,-0.0006865076,-0.1744527685,0.0007683273,-0.0017680065
558334.2800235810,9.7947563300,-0.0037114911,-0.0000668505,-0.1744419119,0.0007140742,-0.0008242658
558334.2900235810,9.7954900830,0.0062053294,0.0011514180,-0.1744527685,0.0008008792,-0.0017680065
558334.3000235810,9.7949160613,-0.0049312201,0.0002363422,-0.1744636251,0.0007357755,-0.0009218942
558334.3100235810,9.7965432913,0.0071254928,-0.0002296324,-0.1745504781,0.0007900286,-0.0015619022
558334.3200235810,9.7946109054,-0.0058474238,-0.0002190681,-0.1745396215,0.0007357755,-0.0011822364
558334.3300235810,9.7950378326,0.0048307113,0.0011545964,-0.1744636251,0.0007466261,-0.0012581696
558334.3400235811,9.7950598158,-0.0011177690,0.0009993662,-0.1745287649,0.0007357755,-0.0015510546
558334.3500235809,9.7953419920,0.0016296604,-0.0005270133,-0.1744853384,0.0007574767,-0.0009110466
558334.3600235810,9.7953427303,0.0030020555,0.0002361633,-0.1745179083,0.0007683273,-0.0017788541
558334.3700235810,9.7949227774,-0.0047791098,0.0011514705,-0.1745396215,0.0007357755,-0.0008134182
558334.3800235810,9.7962383936,0.0089541486,0.0006888007,-0.1745721914,0.0007574767,-0.0017680065
558334.3900235810,9.7950685102,-0.0058455480,-0.0002228743,-0.1745070516,0.0007357755,-0.0009218942
558334.4000235810,9.7963955158,0.0059046521,-0.0002289217,-0.1744853384,0.0007683273,-0.0015727498
558334.4100235810,9.7941587696,-0.0060021043,0.0003947074,-0.1744636251,0.0007357755,-0.0012039316
558334.4200235810,9.7950348293,0.0052883615,0.0010022960,-0.1744853384,0.0007466261,-0.0012907123
558334.4300235810,9.7949090370,-0.0018809595,0.0008477764,-0.1745070516,0.0007900286,-0.0014859690
558334.4400235810,9.7962590436,0.0017858001,-0.0002295364,-0.1745504781,0.0007357755,-0.0010303701
558334.4500235820,9.7958111296,0.0011734000,0.0006890493,-0.1745396215,0.0007574767,-0.0016920733
558334.4600235820,9.7946028347,-0.0009671874,0.0011557519,-0.1744961950,0.0007249248,-0.0008242658
558334.4700235820,9.7957914687,0.0059018038,0.0005387020,-0.1745179083,0.0007574767,-0.0017788541
558334.4800235820,9.7940007945,-0.0055449405,-0.0000613439,-0.1744419119,0.0007249248,-0.0008785038
558334.4900235820,9.7960935639,0.0066656890,0.0005365133,-0.1745396215,0.0007683273,-0.0016703781
558334.5000235820,9.7941582034,-0.0055445930,0.0005474264,-0.1745721914,0.0007140742,-0.0010737605
558334.5100235820,9.7951685777,0.0063575084,-0.0008286016,-0.1745939047,0.0007574767,-0.0013341027
558334.5200235820,9.7955203091,-0.0027934810,0.0005372634,-0.1745287649,0.0007357755,-0.0014317311
558334.5300235820,9.7955121523,0.0011718022,0.0014541356,-0.1745070516,0.0007574767,-0.0009978273
558334.5400235821,9.7965738615,0.0017864952,0.0009880042,-0.1744961950,0.0007574767,-0.0017571589
558334.5500235819,9.7949052667,-0.0031006887,-0.0002203500,-0.1744310552,0.0007357755,-0.0008025706
558334.5600235820,9.7960923167,0.0063607740,0.0002313543,-0.1744527685,0.0007683273,-0.0018222444
558334.5700235820,9.7949322961,-0.0072195404,0.0011503544,-0.1744527685,0.0007466261,-0.0008893514
558334.5800235820,9.7965481940,0.0074301994,0.0005330559,-0.1744853384,0.0007683273,-0.0016269878
558334.5900235820,9.7955213842,-0.0043184724,-0.0000734732,-0.1745070516,0.0007357755,-0.0011713888
558334.6000235820,9.7945698849,0.0049819179,-0.0000616057,-0.1744853384,0.0007357755,-0.0012581696
558334.6100235820,9.7952128596,-0.0021846239,0.0005400799,-0.1745287649,0.0007683273,-0.0015510546
558334.6200235820,9.7955114714,0.0004093760,0.0009962575,-0.1744527685,0.0007466261,-0.0009218942
558334.6300235820,9.7962591583,0.0030057377,0.0003810607,-0.1745287649,0.0007683273,-0.0018222444
558334.6400235820,9.7944529876,-0.0047802912,-0.0003698208,-0.1745070516,0.0006923730,-0.0007483327
558334.6500235820,9.7959350511,0.0078853485,0.0003858304,-0.1745504781,0.0007900286,-0.0018005492
558334.6600235821,9.7949304826,-0.0070669441,0.0009979144,-0.1745287649,0.0007574767,-0.0009544369
558334.6700235819,9.7973114922,0.0075857833,0.0006792917,-0.1745396215,0.0007574767,-0.0014751214
558334.6800235820,9.7949191505,-0.0044739171,0.0008465905,-0.1745070516,0.0007357755,-0.0013883407
558334.6900235820,9.7948924366,0.0029997630,0.0011550281,-0.1744310552,0.0007357755,-0.0010412177
558334.7000235820,9.7950491073,0.0016277155,0.0010006218,-0.1744636251,0.0007574767,-0.0016920733
558334.7100235820,9.7952074767,-0.0011168660,0.0003880584,-0.1744636251,0.0007357755,-0.0008785038
558334.7200235820,9.7957931100,0.0039193011,-0.0002247536,-0.1744961950,0.0007574767,-0.0017354637
558334.7300235820,9.7947556777,-0.0041689330,-0.0003720793,-0.1744419119,0.0007249248,-0.0008893514
558334.7400235820,9.7959536943,0.0052919048,0.0014522128,-0.1744527685,0.0007574767,-0.0017463113
558334.7500235820,9.7949215302,-0.0050840247,0.0008463115,-0.1744636251,0.0007357755,-0.0009544369
558334.7600235820,9.7963907564,0.0071248675,-0.0002283637,-0.1744961950,0.0007683273,-0.0015727498
558334.7700235820,9.7943228947,-0.0058496465,0.0019186060,-0.1745287649,0.0007466261,-0.0011388460
558334.7800235820,9.7945753825,0.0051340976,0.0007010129,-0.1744961950,0.0007140742,-0.0013124075
558334.7900235821,9.7952049823,-0.0017266959,-0.0002222596,-0.1745287649,0.0007683273,-0.0015076642
558334.8000235819,9.7951926038,0.0026963069,0.0003898023,-0.1744853384,0.0007249248,-0.0009869797
558334.8100235820,9.7949007655,0.0008643862,0.0011540515,-0.1744527685,0.0007574767,-0.0017137685
558334.8200235820,9.7946068557,-0.0035597978,0.0003920173,-0.1744419119,0.0007249248,-0.0009001990
558334.8300235820,9.7956340597,0.0059014563,-0.0000700683,-0.1745179083,0.0007574767,-0.0018005492
558334.8400235820,9.7956648233,-0.0038598497,-0.0009895912,-0.1744853384,0.0007466261,-0.0008785038
558334.8500235820,9.7959440609,0.0065123979,0.0008427318,-0.1745179083,0.0007357755,-0.0016486829
558334.8600235820,9.7946205101,-0.0073729013,0.0002377636,-0.1745179083,0.0007249248,-0.0010846081
558334.8700235820,9.7954718628,0.0068163397,-0.0008309298,-0.1744636251,0.0007249248,-0.0013991883
558334.8800235820,9.7944556827,-0.0020355705,0.0013090421,-0.1745070516,0.0007466261,-0.0014208835
558334.8900235820,9.7956544876,0.0028504319,0.0009961049,-0.1744961950,0.0007574767,-0.0010086749
558334.9000235820,9.7961185504,0.0002595585,0.0005335836,-0.1745287649,0.0007574767,-0.0017463113
558334.9100235821,9.7947533841,-0.0026438721,0.0000861476,-0.1744201986,0.0007249248,-0.0008025706
558334.9200235819,9.7959355887,0.0071228528,0.0000804621,-0.1745287649,0.0007683273,-0.0018222444
558334.9300235820,9.7953827618,-0.0053873416,0.0011473853,-0.1744853384,0.0007466261,-0.0008785038
558334.9400235820,9.7968610838,0.0063635532,0.0009875594,-0.1745179083,0.0007466261,-0.0016052926
558334.9500235820,9.7941647762,-0.0069174047,0.0006993084,-0.1745070516,0.0007466261,-0.0012147792
558334.9600235820,9.7947218822,0.0057450389,0.0002424939,-0.1745179083,0.0007249248,-0.0012581696
558334.9700235820,9.7948970239,-0.0000503587,0.0002385744,-0.1745070516,0.0007900286,-0.0015185118
558334.9800235820,9.7958183546,0.0002580302,0.0011461601,-0.1744636251,0.0007357755,-0.0009544369
558334.9900235820,9.7959630409,0.0010215678,0.0005352011,-0.1744853384,0.0007574767,-0.0017246161
558335.0000235820,9.7936802281,-0.0018854756,-0.0002096420,-0.1744419119,0.0006815223,-0.0009001990
558335.0100235820,9.7950258195,0.0066613120,0.0005453945,-0.1747893240,0.0007900286,-0.0017463113
558335.0200235820,9.7956835238,-0.0058433246,0.0003820898,-0.1744419119,0.0007249248,-0.0009001990
558335.0300235820,9.7965613969,0.0052945448,0.0011421183,-0.1745179083,0.0007574767,-0.0016703781
558335.0400235821,9.7941509210,-0.0052391920,-0.0002149829,-0.1744961950,0.0007574767,-0.0010737605
558335.0500235819,9.7956238888,0.0078844451,-0.0003741810,-0.1744961950,0.0007249248,-0.0014100359
558335.0600235820,9.7946140807,-0.0044751676,0.0008491280,-0.1744961950,0.0007574767,-0.0013774931
558335.0700235820,9.7959612275,0.0011741641,0.0003827611,-0.1745179083,0.0007357755,-0.0010629129
558335.0800235820,9.7950422765,0.0002556676,-0.0005251036,-0.1745070516,0.0007357755,-0.0017354637
558335.0900235820,9.7942941380,-0.0006632452,0.0008534094,-0.1744636251,0.0007466261,-0.0008134182
558335.1000235820,9.7956516851,0.0054429729,0.0019123493,-0.1744961950,0.0007466261,-0.0018005492
558335.1100235820,9.7949250424,-0.0066091550,0.0005405944,-0.1744636251,0.0007466261,-0.0008785038
558335.1200235820,9.7970087447,0.0063644563,0.0003762516,-0.1744527685,0.0007574767,-0.0016812257
558335.1300235820,9.7952211311,-0.0049299695,0.0002338048,-0.1744419119,0.0007357755,-0.0010846081
558335.1400235820,9.7957897126,0.0066643690,0.0006915606,-0.1743767721,0.0007140742,-0.0013557979
558335.1500235820,9.7944627070,-0.0050858311,0.0006976080,-0.1744310552,0.0007574767,-0.0014317311
558335.1600235821,9.7961027958,0.0011754144,-0.0009910955,-0.1745070516,0.0007466261,-0.0010303701
558335.1700235819,9.7961101929,0.0020899509,0.0003819109,-0.1745939047,0.0007900286,-0.0017571589
558335.1800235820,9.7933885046,-0.0024974588,0.0011652043,-0.1745287649,0.0007140742,-0.0007917230
558335.1900235820,9.7961092038,0.0045298955,0.0014505953,-0.1745287649,0.0007357755,-0.0017788541
558335.2000235820,9.7950684815,-0.0061505324,-0.0003755236,-0.1745070516,0.0007466261,-0.0008893514
558335.2100235820,9.7963914660,0.0081922782,0.0003821637,-0.1744527685,0.0007683273,-0.0016595305
558335.2200235820,9.7946085831,-0.0046273473,0.0000865095,-0.1745396215,0.0007140742,-0.0010846081
558335.2300235820,9.7953370106,0.0069671998,0.0014580551,-0.1745179083,0.0007249248,-0.0013341027
558335.2400235820,9.7950831322,-0.0058463812,0.0016072428,-0.1745179083,0.0007466261,-0.0014534263
558335.2500235820,9.7968619009,0.0020937022,-0.0009970206,-0.1744961950,0.0007466261,-0.0010412177
558335.2600235820,9.7950363273,0.0017809368,-0.0005244060,-0.1745070516,0.0007466261,-0.0017137685
558335.2700235820,9.7949149575,-0.0037112130,0.0006944296,-0.1744419119,0.0007249248,-0.0007808755
558335.2800235820,9.7945905421,0.0043707686,0.0022257617,-0.1744419119,0.0007357755,-0.0018981776
558335.2900235821,9.7955333399,-0.0067590419,0.0002304302,-0.1744527685,0.0007683273,-0.0008785038
558335.3000235819,9.7965288413,0.0089562324,-0.0011438539,-0.1745070516,0.0007357755,-0.0016052926
558335.3100235820,9.7946242517,-0.0064581564,0.0011532407,-0.1744853384,0.0007683273,-0.0012147792
558335.3200235820,9.7959572638,0.0043767433,0.0014517943,-0.1745179083,0.0007140742,-0.0012147792
558335.3300235820,9.7955138510,-0.0002007317,0.0009959785,-0.1744961950,0.0007574767,-0.0016269878
558335.3400235820,9.7959575146,0.0005644037,-0.0003800667,-0.1745179083,0.0007357755,-0.0008785038
558335.3500235820,9.7967106992,0.0033129451,-0.0002326451,-0.1745070516,0.0007683273,-0.0018222444
558335.3600235820,9.7941630774,-0.0055448707,0.0011574654,-0.1745070516,0.0007249248,-0.0008242658
558335.3700235820,9.7960990042,0.0062078999,0.0009938333,-0.1745179083,0.0007466261,-0.0017463113
558335.3800235820,9.7941568702,-0.0067644611,-0.0002156804,-0.1745070516,0.0007249248,-0.0009869797
558335.3900235820,9.7960946964,0.0057506664,0.0002310753,-0.1745179083,0.0007466261,-0.0014859690
558335.4000235820,9.7949269131,-0.0061517826,0.0009983330,-0.1744419119,0.0007249248,-0.0013124075
558335.4100235821,9.7953445438,0.0028494591,0.0003886033,-0.1744201986,0.0007249248,-0.0012256268
558335.4200235819,9.7953509158,-0.0006582434,-0.0005280596,-0.1743984853,0.0007466261,-0.0015619022
558335.4300235820,9.7961233671,-0.0003506881,0.0008383241,-0.1744853384,0.0007791780,-0.0009544369
558335.4400235820,9.7970248074,0.0022462295,0.0003743682,-0.1744961950,0.0007466261,-0.0017680065
558335.4500235820,9.7946038238,-0.0034071320,0.0000870675,-0.1745179083,0.0007357755,-0.0008242658
558335.4600235820,9.7951771359,0.0066620068,0.0003916160,-0.1745287649,0.0007574767,-0.0017788541
558335.4700235820,9.7949165415,-0.0063036846,-0.0003743246,-0.1744636251,0.0007357755,-0.0009001990
558335.4800235820,9.7957884367,0.0060544696,0.0002337523,-0.1745179083,0.0007574767,-0.0016052926
558335.4900235820,9.7953796152,-0.0064546134,0.0002318385,-0.1745179083,0.0007357755,-0.0012147792
558335.5000235820,9.7947255090,0.0054398462,0.0005473739,-0.1745070516,0.0007140742,-0.0012581696
558335.5100235820,9.7949125778,-0.0031011054,0.0006947086,-0.1745179083,0.0007683273,-0.0015185118
558335.5200235830,9.7961239620,-0.0005032150,0.0008382543,-0.1745396215,0.0007249248,-0.0009652845
558335.5300235830,9.7961156618,0.0019371462,0.0009918802,-0.1745070516,0.0007900286,-0.0018113968
558335.5400235830,9.7944518551,-0.0038652686,-0.0000643828,-0.1744636251,0.0006815223,-0.0008025706
558335.5500235830,9.7963962254,0.0069720628,0.0003816056,-0.1744853384,0.0007683273,-0.0018113968
558335.5600235830,9.7946253555,-0.0076781634,0.0006951534,-0.1744853384,0.0007357755,-0.0009110466
558335.5700235830,9.7959337466,0.0069704647,-0.0002246272,-0.1745287649,0.0007574767,-0.0015619022
558335.5800235830,9.7943058930,-0.0052387056,0.0000887679,-0.1745830480,0.0007140742,-0.0012364744
558335.5900235830,9.7956466963,0.0042233130,0.0006917132,-0.1745504781,0.0007357755,-0.0012147792
558335.6000235830,9.7950627044,-0.0027953568,0.0005410696,-0.1745179083,0.0007466261,-0.0015944450
558335.6100235831,9.7952093188,-0.0009644780,0.0006931477,-0.1744961950,0.0007357755,-0.0009218942
558335.6200235829,9.7959504616,0.0033096798,0.0000787182,-0.1744853384,0.0007466261,-0.0018113968
558335.6300235830,9.7941528492,-0.0041718507,0.0005480542,-0.1744527685,0.0007249248,-0.0008134182
558335.6400235830,9.7950318547,0.0060509961,0.0010026447,-0.1744310552,0.0007357755,-0.0017463113
558335.6500235830,9.7943124657,-0.0066115172,0.0002406499,-0.1744527685,0.0007574767,-0.0009652845
558335.6600235830,9.7963961107,0.0057521252,-0.0002289915,-0.1744636251,0.0007357755,-0.0015619022
558335.6700235830,9.7946134571,-0.0046276251,0.0006965485,-0.1744636251,0.0007466261,-0.0012256268
558335.6800235830,9.7956485384,0.0043757011,0.0009968025,-0.1744419119,0.0007249248,-0.0013015599
558335.6900235830,9.7952218694,-0.0035575744,0.0009969814,-0.1744201986,0.0007574767,-0.0014317311
558335.7000235830,9.7951900807,0.0017814926,-0.0003731650,-0.1744961950,0.0007357755,-0.0010737605
558335.7100235830,9.7958080116,0.0004111126,-0.0000738482,-0.1744419119,0.0007900286,-0.0016703781
558335.7200235830,9.7946034009,-0.0014246987,0.0010030329,-0.1745179083,0.0006815223,-0.0008785038
558335.7300235830,9.7948792051,0.0048304332,0.0003933164,-0.1745396215,0.0007574767,-0.0018222444
558335.7400235831,9.7947646015,-0.0064568367,-0.0003731256,-0.1744419119,0.0007249248,-0.0008242658
558335.7500235830,9.7962412534,0.0069715764,0.0000778548,-0.1744961950,0.0007683273,-0.0017246161
558335.7600235830,9.7943221277,-0.0075270259,0.0010027801,-0.1745396215,0.0007466261,-0.0011171509
558335.7700235830,9.7957885227,0.0069694228,0.0006917001,-0.1745504781,0.0007357755,-0.0013124075
558335.7800235830,9.7953677455,-0.0030990907,0.0003858829,-0.1745179083,0.0007574767,-0.0015185118
558335.7900235830,9.7956674897,-0.0014201134,0.0005366225,-0.1744853384,0.0007574767,-0.0009110466
558335.8000235830,9.7962603768,0.0030056683,0.0005335704,-0.1744961950,0.0007357755,-0.0018547872
558335.8100235830,9.7944615171,-0.0047807773,0.0006977475,-0.1744201986,0.0007249248,-0.0007917230
558335.8200235830,9.7956408332,0.0066635354,0.0011503586,-0.1744419119,0.0007357755,-0.0017788541
558335.8300235830,9.7955314405,-0.0075213988,-0.0003799576,-0.1744419119,0.0007466261,-0.0009652845
558335.8400235830,9.7968501746,0.0069741470,-0.0000797299,-0.1745179083,0.0007574767,-0.0015402070
558335.8500235830,9.7944669574,-0.0052385663,0.0011550675,-0.1745504781,0.0007574767,-0.0012907123
558335.8600235831,9.7959547121,0.0031569446,0.0005361777,-0.1745179083,0.0006815223,-0.0011605412
558335.8700235829,9.7950500104,-0.0017271823,-0.0005260104,-0.1745070516,0.0007900286,-0.0016595305
558335.8800235830,9.7955119516,-0.0009630885,0.0003855907,-0.1744527685,0.0007140742,-0.0008785038
558335.8900235830,9.7959571778,0.0034617901,0.0009938465,-0.1745179083,0.0007900286,-0.0018005492
558335.9000235830,9.7943215902,-0.0067645302,0.0013081484,-0.1745179083,0.0007140742,-0.0008242658
558335.9100235830,9.7957848386,0.0066646467,0.0000815215,-0.1745721914,0.0007574767,-0.0017788541
558335.9200235830,9.7944637821,-0.0066108225,0.0000868714,-0.1745396215,0.0007249248,-0.0009544369
558335.9300235830,9.7965409117,0.0077356004,-0.0002293534,-0.1744961950,0.0007574767,-0.0015619022
558335.9400235830,9.7949209066,-0.0052364822,0.0006937320,-0.1745070516,0.0007357755,-0.0013015599
558335.9500235830,9.7947483453,0.0020836985,0.0017659173,-0.1744527685,0.0007357755,-0.0011388460
558335.9600235830,9.7955095432,-0.0006579653,0.0002332205,-0.1744853384,0.0007357755,-0.0016703781
558335.9700235830,9.7955137650,-0.0011156849,0.0005380307,-0.1744636251,0.0007466261,-0.0008893514
558335.9800235830,9.7964051491,0.0046841591,0.0003805593,-0.1744527685,0.0007574767,-0.0018005492
558335.9900235831,9.7943107096,-0.0058489521,0.0003935084,-0.1744853384,0.0006815223,-0.0008351134
558336.0000235830,9.7954858326,0.0063580646,0.0006939585,-0.1744310552,0.0007357755,-0.0017680065
558336.0100235830,9.7943069968,-0.0064587126,-0.0003693194,-0.1747784674,0.0007357755,-0.0009978273
558336.0200235830,9.7962394687,0.0074291572,0.0000780641,-0.1745070516,0.0007574767,-0.0015402070
558336.0300235830,9.7952399463,-0.0056935068,0.0022160828,-0.1745396215,0.0007574767,-0.0012581696
558336.0400235830,9.7942635392,0.0043707680,-0.0005168765,-0.1745396215,0.0007140742,-0.0012364744
558336.0500235830,9.7942879021,-0.0021878200,-0.0006723858,-0.1745721914,0.0007683273,-0.0015835974
558336.0600235830,9.7958207916,0.0002578913,0.0014511796,-0.1745287649,0.0007249248,-0.0009110466
558336.0700235830,9.7961278469,0.0019364519,0.0025169777,-0.1745179083,0.0007574767,-0.0018330920
558336.0800235830,9.7944602413,-0.0053906766,0.0002399392,-0.1744636251,0.0006923730,-0.0008242658
558336.0900235830,9.7962339424,0.0069719930,-0.0008372037,-0.1745287649,0.0007574767,-0.0018113968
558336.1000235830,9.7955314978,-0.0069114300,-0.0000746591,-0.1745287649,0.0007466261,-0.0009435894
558336.1100235831,9.7962576890,0.0068181468,0.0020604119,-0.1744961950,0.0007357755,-0.0015185118
558336.1200235829,9.7950795054,-0.0055411885,0.0013023628,-0.1745396215,0.0007466261,-0.0013666455
558336.1300235830,9.7947270931,0.0028473746,-0.0005213803,-0.1745070516,0.0007032236,-0.0010846081
558336.1400235830,9.7954980391,0.0001051554,-0.0008339991,-0.1745179083,0.0007357755,-0.0017137685
558336.1500235830,9.7964343574,-0.0021796911,0.0006824397,-0.1744093420,0.0007683273,-0.0008351134
558336.1600235830,9.7945880764,0.0040659231,0.0017680929,-0.1745070516,0.0007357755,-0.0018005492
558336.1700235830,9.7949196308,-0.0058463816,0.0002359237,-0.1745179083,0.0007357755,-0.0008893514
558336.1800235830,9.7950160715,0.0066618676,-0.0006746836,-0.1745504781,0.0007357755,-0.0016812257
558336.1900235830,9.7937041395,-0.0067666147,0.0003981648,-0.1745396215,0.0007466261,-0.0010412177
558336.2000235830,9.7968689324,0.0056006409,0.0015972497,-0.1744961950,0.0007357755,-0.0014751214
558336.2100235830,9.7947714610,-0.0047798045,0.0013052490,-0.1744853384,0.0007357755,-0.0013232551
558336.2200235830,9.7954806145,0.0026985296,-0.0017478718,-0.1744527685,0.0007140742,-0.0011713888
558336.2300235830,9.7953574886,-0.0020310550,-0.0003761776,-0.1744527685,0.0007574767,-0.0015402070
558336.2400235831,9.7952160636,-0.0005073833,0.0017609253,-0.1744636251,0.0007357755,-0.0009761321
558336.2500235830,9.7959673487,0.0014788013,0.0012979591,-0.1745287649,0.0007574767,-0.0017680065
558336.2600235830,9.7945928285,-0.0037114915,-0.0014381696,-0.1745504781,0.0006815223,-0.0008351134
558336.2700235830,9.7962375406,0.0063618159,-0.0006849730,-0.1745939047,0.0007683273,-0.0018005492
558336.2800235830,9.7949413632,-0.0079825222,0.0019125544,-0.1745179083,0.0007249248,-0.0008893514
558336.2900235830,9.7974634322,0.0077389355,0.0006780927,-0.1745504781,0.0007900286,-0.0016595305
558336.3000235830,9.7941551141,-0.0060018960,-0.0000628219,-0.1745287649,0.0006706717,-0.0012039316
558336.3100235830,9.7953245961,0.0045280190,-0.0012882367,-0.1744961950,0.0007466261,-0.0012147792
558336.3200235830,9.7949144199,-0.0029487173,0.0009997979,-0.1745179083,0.0007466261,-0.0016269878
558336.3300235830,9.7952209663,-0.0002026766,0.0025236136,-0.1745287649,0.0007357755,-0.0009110466
558336.3400235830,9.7959504330,0.0030046955,-0.0000739311,-0.1745179083,0.0007357755,-0.0017680065
558336.3500235830,9.7949044711,-0.0050830526,-0.0012888251,-0.1744636251,0.0006923730,-0.0008676562
558336.3600235831,9.7962586207,0.0037682334,0.0006864290,-0.1744419119,0.0007574767,-0.0017354637
558336.3700235829,9.7946237428,-0.0053906763,0.0016112583,-0.1744419119,0.0007140742,-0.0009761321
558336.3800235830,9.7968586468,0.0063636921,0.0006825399,-0.1745070516,0.0007466261,-0.0016052926
558336.3900235830,9.7939977052,-0.0060022435,-0.0006715922,-0.1744527685,0.0006815223,-0.0011279984
558336.4000235830,9.7951756594,0.0039172166,-0.0011347372,-0.1744419119,0.0007357755,-0.0014208835
558336.4100235830,9.7949222111,-0.0043215985,0.0013041896,-0.1744636251,0.0007574767,-0.0014100359
558336.4200235830,9.7961097127,0.0034624154,0.0009925777,-0.1745287649,0.0007032236,-0.0010846081
558336.4300235830,9.7959598082,-0.0009606572,-0.0008382936,-0.1745179083,0.0007683273,-0.0016812257
558336.4400235830,9.7949027437,-0.0040155030,-0.0009833173,-0.1744853384,0.0006815223,-0.0008351134
558336.4500235830,9.7961092038,0.0045298955,0.0014505953,-0.1745721914,0.0007683273,-0.0018330920
558336.4600235830,9.7938634192,-0.0063088947,0.0014646736,-0.1745179083,0.0007357755,-0.0008568086
558336.4700235830,9.7969930188,0.0075852965,-0.0009957781,-0.1745396215,0.0007466261,-0.0017137685
558336.4800235830,9.7940090660,-0.0082902861,-0.0003676190,-0.1744961950,0.0007357755,-0.0010846081
558336.4900235831,9.7951915860,0.0048312671,0.0013058375,-0.1744636251,0.0007357755,-0.0013232551
558336.5000235830,9.7944683480,-0.0034087294,0.0022234729,-0.1744853384,0.0007249248,-0.0015619022
558336.5100235830,9.7956518212,0.0004106956,-0.0005301088,-0.1744201986,0.0007357755,-0.0008785038
558336.5200235830,9.7965586158,0.0016348709,-0.0009946924,-0.1744636251,0.0007466261,-0.0018439396
558336.5300235830,9.7937060103,-0.0063092423,0.0008559034,-0.1744527685,0.0007140742,-0.0008134182
558336.5400235830,9.7956499003,0.0059005536,0.0019125586,-0.1744853384,0.0007357755,-0.0017788541
558336.5500235830,9.7947676048,-0.0069144869,-0.0002208251,-0.1744961950,0.0007357755,-0.0009544369
558336.5600235830,9.7963876098,0.0060575957,-0.0011439105,-0.1745179083,0.0007574767,-0.0015727498
558336.5700235830,9.7950782009,-0.0064560723,0.0006919052,-0.1745287649,0.0007466261,-0.0012473220
558336.5800235830,9.7955033146,0.0043746592,0.0019131298,-0.1745070516,0.0007032236,-0.0012147792
558336.5900235830,9.7950627617,-0.0021853880,0.0008463681,-0.1745179083,0.0007357755,-0.0016378353
558336.6000235840,9.7953477978,-0.0014205307,-0.0012909572,-0.1745287649,0.0007249248,-0.0009001990
558336.6100235840,9.7953396411,0.0025447525,-0.0003740850,-0.1745070516,0.0007574767,-0.0018330920
558336.6200235840,9.7941733631,-0.0063079219,0.0020721752,-0.1744527685,0.0007140742,-0.0008568086
558336.6300235840,9.7957969663,0.0060539836,0.0013013206,-0.1744636251,0.0007249248,-0.0017246161
558336.6400235840,9.7946059454,-0.0067620992,-0.0012870550,-0.1744310552,0.0007466261,-0.0009869797
558336.6500235840,9.7969989679,0.0060600274,-0.0009964757,-0.1744853384,0.0007900286,-0.0015510546
558336.6600235840,9.7943216762,-0.0058495770,0.0017660962,-0.1744527685,0.0007249248,-0.0012473220
558336.6700235840,9.7950462761,0.0039152720,0.0017642169,-0.1744527685,0.0006815223,-0.0012690172
558336.6800235840,9.7947485387,-0.0023386100,-0.0003712422,-0.1744527685,0.0007249248,-0.0015727498
558336.6900235839,9.7955022035,-0.0009625330,-0.0008344874,-0.1744636251,0.0007574767,-0.0009001990
558336.7000235840,9.7961132248,0.0019372851,0.0006868606,-0.1745396215,0.0007574767,-0.0018113968
558336.7100235840,9.7950813188,-0.0056937849,0.0014548028,-0.1745396215,0.0007140742,-0.0008242658
558336.7200235840,9.7960910982,0.0063608435,0.0000788445,-0.1745721914,0.0007357755,-0.0017680065
558336.7300235840,9.7955289748,-0.0078262443,-0.0008376264,-0.1744636251,0.0007466261,-0.0009761321
558336.7400235840,9.7968628112,0.0052960037,0.0006820516,-0.1745504781,0.0007249248,-0.0015835974
558336.7500235840,9.7955358916,-0.0055392432,0.0011460468,-0.1745070516,0.0007249248,-0.0012473220
558336.7600235840,9.7948798000,0.0046779063,0.0003932466,-0.1745070516,0.0007140742,-0.0012364744
558336.7700235840,9.7952091754,-0.0024893999,-0.0000700987,-0.1744853384,0.0007466261,-0.0015619022
558336.7800235840,9.7961184070,-0.0012653635,-0.0002296628,-0.1744419119,0.0007357755,-0.0009544369
558336.7900235840,9.7962639176,0.0017855224,0.0003805026,-0.1744527685,0.0007466261,-0.0018222444
558336.8000235840,9.7943071688,-0.0046288062,0.0005465762,-0.1744093420,0.0006923730,-0.0008568086
558336.8100235841,9.7960977857,0.0062079694,0.0008413236,-0.1744853384,0.0007357755,-0.0017788541
558336.8200235839,9.7944679465,-0.0076785110,0.0000863831,-0.1744419119,0.0007249248,-0.0009435894
558336.8300235840,9.7963925125,0.0063623023,-0.0003812222,-0.1744961950,0.0007574767,-0.0016052926
558336.8400235840,9.7950679152,-0.0056930210,-0.0002228046,-0.1745179083,0.0007249248,-0.0012256268
558336.8500235840,9.7954862555,0.0043756313,-0.0002220069,-0.1744961950,0.0007466261,-0.0012690172
558336.8600235840,9.7953701252,-0.0037091983,0.0003856038,-0.1745070516,0.0007249248,-0.0015619022
558336.8700235840,9.7959689614,-0.0008086858,0.0003818542,-0.1744419119,0.0007357755,-0.0009869797
558336.8800235840,9.7956501798,0.0023931984,0.0002333468,-0.1744961950,0.0007357755,-0.0018005492
558336.8900235840,9.7950583679,-0.0035575748,-0.0003743377,-0.1744961950,0.0007249248,-0.0007808755
558336.9000235840,9.7961055769,0.0048350882,0.0011457153,-0.1745070516,0.0007466261,-0.0018439396
558336.9100235840,9.7947802414,-0.0085926302,0.0005409563,-0.1744419119,0.0007357755,-0.0009110466
558336.9200235840,9.7968411075,0.0077371287,-0.0008419299,-0.1745179083,0.0007466261,-0.0016052926
558336.9300235840,9.7955285519,-0.0058438110,0.0000783390,-0.1744636251,0.0007249248,-0.0012256268
558336.9400235839,9.7953459056,0.0043743117,0.0013043595,-0.1744636251,0.0007032236,-0.0012581696
558336.9500235840,9.7950657076,-0.0032530070,0.0006933701,-0.1744310552,0.0007357755,-0.0015510546
558336.9600235840,9.7953430672,0.0001046690,-0.0011377498,-0.1744853384,0.0007357755,-0.0009218942
558336.9700235840,9.7964110409,0.0025489211,0.0000745632,-0.1745721914,0.0007900286,-0.0018222444
558336.9800235840,9.7952356098,-0.0064557247,0.0013006755,-0.1745070516,0.0006815223,-0.0008242658
558336.9900235840,9.7962527289,0.0059034714,0.0009924251,-0.1745287649,0.0007466261,-0.0018005492
558337.0000235840,9.7947597561,-0.0061515746,-0.0008305154,-0.1744853384,0.0007357755,-0.0009978273
558337.0100235840,9.7965486169,0.0054477661,-0.0003829095,-0.1748327505,0.0007466261,-0.0014968166
558337.0200235840,9.7943119281,-0.0058490215,0.0005460182,-0.1745504781,0.0007140742,-0.0013124075
558337.0300235840,9.7951938509,0.0030012219,0.0006949614,-0.1745179083,0.0007357755,-0.0012039316
558337.0400235840,9.7949102268,-0.0021860133,0.0008476369,-0.1745287649,0.0007357755,-0.0015727498
558337.0500235840,9.7959640587,-0.0011133924,-0.0003808341,-0.1745179083,0.0007357755,-0.0009978273
558337.0600235841,9.7965658982,0.0013294699,-0.0002322831,-0.1744961950,0.0007574767,-0.0017788541
558337.0700235839,9.7949191505,-0.0044739171,0.0008465905,-0.1744310552,0.0007140742,-0.0008242658
558337.0800235840,9.7956431842,0.0057484433,0.0009974303,-0.1744201986,0.0007249248,-0.0018330920
558337.0900235840,9.7943033412,-0.0064585043,-0.0008268487,-0.1743767721,0.0007357755,-0.0008893514
558337.1000235840,9.7974579059,0.0072817713,-0.0002371751,-0.1744310552,0.0007574767,-0.0016269878
558337.1100235840,9.7944782608,-0.0081365778,0.0011537421,-0.1745396215,0.0007249248,-0.0011605412
558337.1200235840,9.7950312025,0.0055935542,0.0006974160,-0.1745070516,0.0007249248,-0.0013449503
558337.1300235840,9.7947527605,-0.0027963296,-0.0000664320,-0.1745070516,0.0007249248,-0.0015510546
558337.1400235840,9.7953442570,-0.0002003848,-0.0011378894,-0.1745287649,0.0007140742,-0.0009110466
558337.1500235840,9.7964206456,0.0010234436,0.0005313949,-0.1745179083,0.0007683273,-0.0018547872
558337.1600235840,9.7946152132,-0.0053901902,0.0005436900,-0.1745396215,0.0006923730,-0.0007700279
558337.1700235840,9.7957813264,0.0081897770,0.0003872386,-0.1745179083,0.0007357755,-0.0018113968
558337.1800235840,9.7947723928,-0.0078297179,-0.0000687339,-0.1745504781,0.0007249248,-0.0009761321
558337.1900235839,9.7960982372,0.0045305205,0.0000780075,-0.1744961950,0.0007466261,-0.0014642738
558337.2000235840,9.7944681186,-0.0058486046,0.0010022787,-0.1744636251,0.0007249248,-0.0014208835
558337.2100235840,9.7951884393,0.0037639953,0.0003902906,-0.1744201986,0.0007357755,-0.0010520653
558337.2200235840,9.7955084394,0.0005620418,0.0006913078,-0.1743984853,0.0007357755,-0.0017246161
558337.2300235840,9.7958275579,-0.0055372289,-0.0005340980,-0.1744419119,0.0007249248,-0.0008676562
558337.2400235840,9.7961005882,0.0036154284,-0.0000749208,-0.1744961950,0.0007466261,-0.0018005492
558337.2500235840,9.7949233436,-0.0052366211,0.0009987515,-0.1745287649,0.0007140742,-0.0009001990
558337.2600235840,9.7960953773,0.0065130926,0.0006889533,-0.1745396215,0.0007466261,-0.0017246161
558337.2700235840,9.7947748298,-0.0078298568,0.0002362856,-0.1744853384,0.0007249248,-0.0010303701
558337.2800235840,9.7962483351,0.0045312846,-0.0002282808,-0.1745396215,0.0007466261,-0.0015402070
558337.2900235840,9.7947713463,-0.0059997421,0.0006946519,-0.1744853384,0.0007249248,-0.0013124075
558337.3000235840,9.7951866833,0.0045265605,0.0005431492,-0.1745396215,0.0007249248,-0.0012039316
558337.3100235841,9.7945991505,-0.0012719635,0.0005455734,-0.1745504781,0.0007466261,-0.0015835974
558337.3200235839,9.7959736920,-0.0023338855,0.0002286469,-0.1744853384,0.0007357755,-0.0009869797
558337.3300235840,9.7964140155,0.0017862865,0.0000742144,-0.1745287649,0.0007466261,-0.0018222444
558337.3400235840,9.7949197741,-0.0043214596,0.0009991700,-0.1744853384,0.0007249248,-0.0008242658
558337.3500235840,9.7944222813,0.0055909836,0.0008550007,-0.1744636251,0.0007357755,-0.0018222444
558337.3600235840,9.7938594770,-0.0093585304,-0.0005193483,-0.1744636251,0.0007249248,-0.0009652845
558337.3700235840,9.7970002151,0.0063649423,-0.0006913167,-0.1744961950,0.0007466261,-0.0015402070
558337.3800235840,9.7946170266,-0.0055427866,0.0006961300,-0.1744853384,0.0007249248,-0.0013341027
558337.3900235840,9.7956586807,0.0020877279,0.0011482659,-0.1744636251,0.0007249248,-0.0011279984
558337.4000235840,9.7956596125,-0.0009621855,-0.0002257171,-0.1744961950,0.0007466261,-0.0017354637
558337.4100235840,9.7952073046,-0.0029467724,-0.0005278372,-0.1744961950,0.0007357755,-0.0008568086
558337.4200235840,9.7967071010,0.0039231222,-0.0003848758,-0.1744961950,0.0007466261,-0.0018222444
558337.4300235840,9.7938573267,-0.0063085476,0.0007021249,-0.1744853384,0.0006815223,-0.0008785038
558337.4400235839,9.7957986363,0.0043764652,0.0006905142,-0.1745504781,0.0007466261,-0.0017463113
558337.4500235840,9.7949201970,-0.0063038929,0.0000832047,-0.1745396215,0.0007357755,-0.0009978273
558337.4600235840,9.7966968727,0.0052961422,-0.0009942870,-0.1745287649,0.0007466261,-0.0015619022
558337.4700235840,9.7953832133,-0.0070647905,0.0003840692,-0.1745070516,0.0007249248,-0.0012690172
558337.4800235840,9.7944294490,0.0040656450,0.0010068129,-0.1744310552,0.0007032236,-0.0012690172
558337.4900235840,9.7950615145,-0.0024903030,0.0005412091,-0.1743984853,0.0007357755,-0.0015727498
558337.5000235840,9.7956595838,-0.0012671699,-0.0003783663,-0.1743767721,0.0007249248,-0.0009218942
558337.5100235840,9.7968769745,0.0004154201,0.0000697804,-0.1744636251,0.0007900286,-0.0018330920
558337.5200235840,9.7946091207,-0.0053898430,-0.0002188588,-0.1744961950,0.0006706717,-0.0008568086
558337.5300235840,9.7951801105,0.0058993722,0.0003912672,-0.1744527685,0.0007574767,-0.0017571589
558337.5400235840,9.7944643484,-0.0070683338,-0.0000658477,-0.1744419119,0.0007032236,-0.0009761321
558337.5500235840,9.7960867044,0.0049886567,-0.0011418613,-0.1745070516,0.0007466261,-0.0015727498
558337.5600235841,9.7950721657,-0.0058457563,0.0002346550,-0.1745179083,0.0007249248,-0.0012256268
558337.5700235839,9.7947290499,0.0042197003,0.0003943061,-0.1745179083,0.0007466261,-0.0012907123
558337.5800235840,9.7950693345,-0.0035581997,0.0009982501,-0.1745504781,0.0007249248,-0.0015076642
558337.5900235840,9.7959628689,-0.0008083386,-0.0003806945,-0.1746047613,0.0007140742,-0.0010629129
558337.6000235840,9.7956536346,0.0002580993,-0.0003776688,-0.1745179083,0.0007357755,-0.0017246161
558337.6100235840,9.7941504695,-0.0035617431,0.0005483332,-0.1745070516,0.0007032236,-0.0008785038
558337.6200235840,9.7957992026,0.0039189539,0.0005377952,-0.1744853384,0.0007357755,-0.0018330920
558337.6300235840,9.7955350100,-0.0084365603,-0.0003803761,-0.1744961950,0.0007466261,-0.0008568086
558337.6400235840,9.7965371988,0.0071258400,-0.0009921812,-0.1744961950,0.0007466261,-0.0016812257
558337.6500235840,9.7947784566,-0.0081350495,0.0005411656,-0.1745179083,0.0007357755,-0.0012256268
558337.6600235840,9.7950383415,0.0037632312,0.0006965789,-0.1744961950,0.0006815223,-0.0012256268
558337.6700235850,9.7955148401,-0.0026406763,-0.0000727059,-0.1744527685,0.0007466261,-0.0016378353
558337.6800235850,9.7959591847,-0.0011131147,-0.0009908731,-0.1744093420,0.0007249248,-0.0008893514
558337.6900235850,9.7959491858,0.0026997805,-0.0003790901,-0.1744527685,0.0007466261,-0.0018222444
558337.7000235850,9.7947755394,-0.0067624461,0.0008468129,-0.1744853384,0.0007140742,-0.0008568086
558337.7100235850,9.7961014125,0.0059027767,0.0011462036,-0.1744636251,0.0007249248,-0.0017788541
558337.7200235850,9.7947676048,-0.0069144869,-0.0002208251,-0.1745396215,0.0007357755,-0.0009761321
558337.7300235850,9.7966993097,0.0052960033,-0.0006892675,-0.1745721914,0.0007683273,-0.0015510546
558337.7400235850,9.7950835838,-0.0075238301,0.0008439267,-0.1745721914,0.0007032236,-0.0012581696
558337.7500235850,9.7953439488,0.0030019860,0.0003886731,-0.1744527685,0.0007249248,-0.0012581696
558337.7600235851,9.7949029158,-0.0021855967,-0.0000674217,-0.1744419119,0.0007140742,-0.0015510546
558337.7700235849,9.7953527579,-0.0005058553,-0.0002229703,-0.1744419119,0.0007466261,-0.0009978273
558337.7800235850,9.7958157455,-0.0015717373,-0.0000747551,-0.1744419119,0.0007466261,-0.0017680065
558337.7900235850,9.7947617703,-0.0041692802,0.0003904695,-0.1744201986,0.0007140742,-0.0009001990
558337.8000235850,9.7957883794,0.0054445008,-0.0000715463,-0.1744636251,0.0007249248,-0.0018439396
558337.8100235850,9.7946150125,-0.0075250810,-0.0005248549,-0.1744527685,0.0007249248,-0.0008676562
558337.8200235850,9.7963997088,0.0051419481,-0.0000767607,-0.1744853384,0.0007683273,-0.0017246161
558337.8300235850,9.7944758525,-0.0078314545,0.0010013719,-0.1745830480,0.0007140742,-0.0011171509
558337.8400235850,9.7954863415,0.0052905845,0.0002359410,-0.1745504781,0.0007357755,-0.0013666455
558337.8500235850,9.7953676308,-0.0043190282,-0.0002247142,-0.1745287649,0.0007466261,-0.0015185118
558337.8600235850,9.7956584513,-0.0003521473,-0.0000729283,-0.1745287649,0.0007032236,-0.0009652845
558337.8700235850,9.7958116958,0.0007158887,0.0005363303,-0.1745179083,0.0007466261,-0.0018005492
558337.8800235851,9.7944590228,-0.0053906072,0.0000874294,-0.1744527685,0.0006706717,-0.0008242658
558337.8900235849,9.7957871322,0.0051395859,-0.0003767053,-0.1743984853,0.0007574767,-0.0018330920
558337.9000235850,9.7946180158,-0.0079827312,-0.0003725545,-0.1744093420,0.0007249248,-0.0009435894
558337.9100235850,9.7962466364,0.0059038186,0.0002298763,-0.1744419119,0.0007466261,-0.0015944450
558337.9200235850,9.7950830175,-0.0070663188,0.0009966457,-0.1744310552,0.0007140742,-0.0013124075
558337.9300235850,9.7953391322,0.0036122326,0.0000839326,-0.1743984853,0.0006815223,-0.0012039316
558337.9400235850,9.7950500104,-0.0017271823,-0.0005260104,-0.1744636251,0.0007466261,-0.0016378353
558337.9500235850,9.7955123745,-0.0029455218,-0.0005303747,-0.1744853384,0.0007249248,-0.0009435894
558337.9600235850,9.7962615380,0.0023956300,0.0003807817,-0.1744961950,0.0007466261,-0.0018113968
558337.9700235850,9.7947616843,-0.0050842334,-0.0000674783,-0.1745504781,0.0007249248,-0.0008785038
558337.9800235850,9.7957919489,0.0045293393,-0.0000719648,-0.1745396215,0.0007249248,-0.0017354637
558337.9900235850,9.7938595630,-0.0084435772,-0.0000614005,-0.1745179083,0.0007466261,-0.0010086749
558338.0000235850,9.7962556748,0.0048358524,0.0008394270,-0.1745504781,0.0007249248,-0.0016052926
558338.0100235851,9.7944577183,-0.0063054909,-0.0005230282,-0.1748001806,0.0007466261,-0.0011713888
558338.0200235849,9.7962464930,0.0043788966,-0.0005333701,-0.1745070516,0.0007032236,-0.0013341027
558338.0300235850,9.7953772355,-0.0058445057,0.0002321175,-0.1744853384,0.0007466261,-0.0014425787
558338.0400235850,9.7964278993,0.0004130582,0.0011411549,-0.1745070516,0.0007249248,-0.0011171509
558338.0500235850,9.7955138223,-0.0005057161,0.0008433292,-0.1744419119,0.0007357755,-0.0016920733
558338.0600235850,9.7941395603,-0.0029511493,-0.0005189560,-0.1744419119,0.0006923730,-0.0008785038
558338.0700235850,9.7957954610,0.0030042091,-0.0003776819,-0.1744636251,0.0007357755,-0.0018547872
558338.0800235850,9.7944709785,-0.0078311767,0.0003913328,-0.1744636251,0.0007249248,-0.0008676562
558338.0900235850,9.7971576814,0.0069752586,0.0002227522,-0.1744636251,0.0007466261,-0.0017246161
558338.1000235850,9.7947705507,-0.0079821059,-0.0003738232,-0.1745396215,0.0007140742,-0.0010954557
558338.1100235850,9.7954789731,0.0046810323,-0.0009844161,-0.1745179083,0.0007466261,-0.0013883407
558338.1200235850,9.7953785400,-0.0049296220,0.0008425750,-0.1746373312,0.0007466261,-0.0015185118
558338.1300235851,9.7959702659,0.0001061980,0.0009923118,-0.1746047613,0.0007466261,-0.0009435894
558338.1400235849,9.7959510565,0.0031571529,0.0000786484,-0.1745396215,0.0007140742,-0.0019090252
558338.1500235850,9.7940084424,-0.0084427436,-0.0005201985,-0.1744419119,0.0007249248,-0.0007374851
558338.1600235850,9.7957818066,0.0068173125,-0.0002234282,-0.1744419119,0.0007357755,-0.0018113968
558338.1700235850,9.7941713489,-0.0082902164,0.0008511903,-0.1744093420,0.0007357755,-0.0010846081
558338.1800235850,9.7974626939,0.0063665404,-0.0000850839,-0.1744419119,0.0007357755,-0.0013991883
558338.1900235850,9.7946109628,-0.0052374550,0.0000862304,-0.1744310552,0.0007249248,-0.0014751214
558338.2000235850,9.7958025427,0.0005639173,-0.0006838175,-0.1744636251,0.0007140742,-0.0011171509
558338.2100235850,9.7956609170,-0.0000473018,0.0003847405,-0.1744527685,0.0007574767,-0.0016595305
558338.2200235850,9.7949059477,-0.0023382625,0.0002375281,-0.1744527685,0.0007140742,-0.0009218942
558338.2300235850,9.7960998499,0.0022430333,-0.0008380974,-0.1745179083,0.0007683273,-0.0017354637
558338.2400235850,9.7944534391,-0.0064577401,-0.0011331369,-0.1744853384,0.0006815223,-0.0009218942
558338.2500235850,9.7956376005,0.0046813104,-0.0002231361,-0.1745179083,0.0007249248,-0.0017571589
558338.2600235851,9.7940085571,-0.0072228060,0.0000903985,-0.1744527685,0.0007357755,-0.0009652845
558338.2700235849,9.7967049220,0.0066681207,0.0006839481,-0.1745179083,0.0007466261,-0.0016269878
558338.2800235850,9.7950811468,-0.0075236912,0.0005389072,-0.1745396215,0.0007140742,-0.0012364744
558338.2900235850,9.7954795393,0.0042235210,-0.0011371352,-0.1745396215,0.0007357755,-0.0012364744
558338.3000235850,9.7950632993,-0.0029478837,0.0005409998,-0.1745504781,0.0007249248,-0.0016269878
558338.3100235850,9.7946051570,-0.0021872639,0.0008501743,-0.1744853384,0.0007357755,-0.0009544369
558338.3200235850,9.7953396124,0.0022397681,-0.0005267342,-0.1744853384,0.0007466261,-0.0018330920
558338.3300235850,9.7940013320,-0.0063074362,-0.0003667122,-0.1744527685,0.0006923730,-0.0008351134
558338.3400235850,9.7956370630,0.0054438061,0.0000822322,-0.1744310552,0.0007357755,-0.0018005492
558338.3500235850,9.7943238552,-0.0085945755,0.0006972723,-0.1745070516,0.0007249248,-0.0009652845
558338.3600235850,9.7962387304,0.0060567621,-0.0006851125,-0.1745396215,0.0007357755,-0.0015619022
558338.3700235850,9.7953693295,-0.0056915622,-0.0006828713,-0.1745287649,0.0007466261,-0.0013666455
558338.3800235851,9.7950418249,0.0019331165,0.0002382125,-0.1745070516,0.0007140742,-0.0011496936
558338.3900235849,9.7956770658,-0.0032505753,0.0008408049,-0.1745070516,0.0007249248,-0.0016486829
558338.4000235850,9.7950530136,-0.0021848325,-0.0003737099,-0.1744853384,0.0007032236,-0.0009435894
558338.4100235850,9.7957966222,0.0023941708,-0.0005304707,-0.1744636251,0.0007574767,-0.0018113968
558338.4200235850,9.7950733555,-0.0061508101,0.0002345154,-0.1744961950,0.0006815223,-0.0008351134
558338.4300235850,9.7956431268,0.0051384745,0.0006921317,-0.1745721914,0.0007466261,-0.0018005492
558338.4400235850,9.7949243041,-0.0079815501,-0.0002225822,-0.1745070516,0.0007140742,-0.0010086749
558338.4500235850,9.7965479646,0.0049903242,-0.0006881383,-0.1745070516,0.0007357755,-0.0015510546
558338.4600235850,9.7955296844,-0.0067588336,-0.0002270991,-0.1744527685,0.0007249248,-0.0013232551
558338.4700235850,9.7948832548,0.0025428072,-0.0002177690,-0.1744310552,0.0007249248,-0.0012256268
558338.4800235850,9.7952158629,-0.0026422741,0.0006923804,-0.1744093420,0.0007466261,-0.0015944450
558338.4900235850,9.7955124318,-0.0023355530,-0.0002250761,-0.1744527685,0.0007249248,-0.0009652845
558338.5000235850,9.7954950072,0.0002578212,-0.0011389488,-0.1745396215,0.0007357755,-0.0018005492
558338.5100235851,9.7941502688,-0.0056966338,-0.0005202117,-0.1745287649,0.0007140742,-0.0008785038
558338.5200235849,9.7950287654,0.0055936931,0.0003923964,-0.1745504781,0.0007357755,-0.0018222444
558338.5300235850,9.7946241083,-0.0079830784,0.0003899943,-0.1744527685,0.0007357755,-0.0009869797
558338.5400235850,9.7970013476,0.0054499197,-0.0009967547,-0.1745070516,0.0007357755,-0.0015076642
558338.5500235850,9.7952228298,-0.0063025034,-0.0002243523,-0.1744636251,0.0007466261,-0.0013774931
558338.5600235850,9.7947367551,0.0019318659,0.0002407500,-0.1745396215,0.0007032236,-0.0011171509
558338.5700235850,9.7947522516,-0.0017288495,0.0003915856,-0.1745396215,0.0007357755,-0.0016920733
558338.5800235850,9.7952054912,-0.0027941760,-0.0006802772,-0.1745070516,0.0007140742,-0.0009218942
558338.5900235850,9.7959599516,0.0005642648,-0.0000750472,-0.1744853384,0.0007574767,-0.0018113968
558338.6000235850,9.7950666967,-0.0056929516,-0.0003753143,-0.1744636251,0.0007032236,-0.0008785038
558338.6100235850,9.7957969089,0.0054440148,0.0009960220,-0.1744853384,0.0007249248,-0.0018222444
558338.6200235850,9.7938613764,-0.0085961736,0.0000910395,-0.1744201986,0.0007032236,-0.0009652845
558338.6300235851,9.7960867617,0.0055986255,-0.0008365628,-0.1745070516,0.0007574767,-0.0015835974
558338.6400235849,9.7946149838,-0.0078300654,-0.0006775042,-0.1745396215,0.0007249248,-0.0013015599
558338.6500235850,9.7951896005,0.0031539571,0.0002375018,-0.1745396215,0.0007466261,-0.0012473220
558338.6600235850,9.7955202804,-0.0030984654,0.0003846141,-0.1745396215,0.0007249248,-0.0016378353
558338.6700235850,9.7947425609,-0.0011183252,-0.0005231939,-0.1745179083,0.0007249248,-0.0009218942
558338.6800235850,9.7950338330,0.0011711069,-0.0011347241,-0.1745287649,0.0007466261,-0.0018330920
558338.6900235850,9.7946175069,-0.0069152511,0.0000854631,-0.1744853384,0.0006923730,-0.0008351134
558338.7000235850,9.7947309780,0.0052870415,0.0011573432,-0.1744961950,0.0007357755,-0.0018113968
558338.7100235850,9.7946204528,-0.0079828701,-0.0000675349,-0.1744853384,0.0007140742,-0.0009869797
558338.7200235850,9.7963906131,0.0055999455,-0.0009916100,-0.1744853384,0.0007466261,-0.0015944450
558338.7300235850,9.7949266264,-0.0092016265,-0.0005281597,-0.1744419119,0.0007249248,-0.0012907123
558338.7400235860,9.7959582816,0.0022417831,0.0005357591,-0.1743984853,0.0007032236,-0.0011822364
558338.7500235860,9.7953593593,-0.0015736826,0.0000815609,-0.1743984853,0.0007466261,-0.0016595305
558338.7600235860,9.7958162544,-0.0026392174,-0.0005327726,-0.1744419119,0.0007249248,-0.0009110466
558338.7700235860,9.7957965362,0.0014792176,-0.0009884185,-0.1744961950,0.0007466261,-0.0018439396
558338.7800235860,9.7944625349,-0.0069157375,-0.0002182877,-0.1744853384,0.0006815223,-0.0008893514
558338.7900235860,9.7956431842,0.0057484433,0.0009974303,-0.1744636251,0.0007140742,-0.0018113968
558338.8000235860,9.7941538383,-0.0066117953,-0.0005206302,-0.1744636251,0.0007140742,-0.0009761321
558338.8100235860,9.7965466888,0.0043804249,-0.0011459466,-0.1745070516,0.0007683273,-0.0015619022
558338.8200235860,9.7950828742,-0.0085912408,0.0002333993,-0.1744853384,0.0007249248,-0.0013015599
558338.8300235861,9.7954989208,0.0030024724,0.0006924239,-0.1745396215,0.0007249248,-0.0012690172
558338.8400235859,9.7942939660,-0.0024931516,-0.0000624862,-0.1745504781,0.0007357755,-0.0015727498
558338.8500235860,9.7953472029,-0.0012680038,-0.0012908874,-0.1745939047,0.0007249248,-0.0009869797
558338.8600235860,9.7958084632,-0.0012663363,-0.0008371643,-0.1745396215,0.0007466261,-0.0018005492
558338.8700235860,9.7944632159,-0.0061533112,0.0002395904,-0.1744853384,0.0007140742,-0.0008568086
558338.8800235860,9.7957932821,0.0057492075,0.0006911420,-0.1744636251,0.0007357755,-0.0018222444
558338.8900235860,9.7952281841,-0.0076752457,-0.0002249801,-0.1744201986,0.0007249248,-0.0009435894
558338.9000235860,9.7971581330,0.0052978097,-0.0005405639,-0.1744853384,0.0007249248,-0.0015944450
558338.9100235860,9.7946125181,-0.0081349109,-0.0011351730,-0.1744853384,0.0007140742,-0.0013015599
558338.9200235860,9.7951841029,0.0030017774,-0.0005251167,-0.1745070516,0.0007032236,-0.0012256268
558338.9300235860,9.7949035107,-0.0023381236,-0.0000674914,-0.1745179083,0.0007140742,-0.0016486829
558338.9400235860,9.7952060861,-0.0029467029,-0.0006803470,-0.1744961950,0.0007032236,-0.0008893514
558338.9500235860,9.7962583913,0.0013283582,-0.0005347652,-0.1745179083,0.0007683273,-0.0018656348
558338.9600235861,9.7946198579,-0.0078303432,-0.0000674652,-0.1744636251,0.0006815223,-0.0008242658
558338.9700235859,9.7959379684,0.0065127451,0.0000801830,-0.1745396215,0.0007574767,-0.0018005492
558338.9800235860,9.7944691077,-0.0082885492,-0.0000664057,-0.1744853384,0.0007032236,-0.0010520653
558338.9900235860,9.7965467461,0.0049903937,-0.0008406480,-0.1745721914,0.0007466261,-0.0015185118
558339.0000235860,9.7950696140,-0.0070655550,-0.0006809616,-0.1744961950,0.0007140742,-0.0013232551
558339.0100235860,9.7951876150,0.0014766471,-0.0008308338,-0.1747784674,0.0007249248,-0.0012147792
558339.0200235860,9.7949041056,-0.0024906505,-0.0000675612,-0.1744310552,0.0007357755,-0.0016378353
558339.0300235860,9.7953617103,-0.0024887747,-0.0000713674,-0.1744961950,0.0007357755,-0.0009435894
558339.0400235860,9.7965623000,0.0019396470,-0.0003845139,-0.1745179083,0.0007574767,-0.0018873300
558339.0500235860,9.7953698671,-0.0064540579,-0.0009882396,-0.1745179083,0.0007140742,-0.0008134182
558339.0600235860,9.7956358445,0.0054438756,-0.0000702775,-0.1745179083,0.0007357755,-0.0018113968
558339.0700235860,9.7935557117,-0.0084448972,0.0000936467,-0.1744310552,0.0007140742,-0.0010412177
558339.0800235861,9.7956375719,0.0043763260,-0.0003757854,-0.1744853384,0.0007140742,-0.0014534263
558339.0900235859,9.7952137627,-0.0055395217,-0.0009865523,-0.1744853384,0.0007574767,-0.0014317311
558339.1000235860,9.7944302947,0.0001007784,-0.0008251179,-0.1744527685,0.0006706717,-0.0011388460
558339.1100235860,9.7952123507,-0.0011171438,0.0009980975,-0.1745070516,0.0007683273,-0.0017137685
558339.1200235860,9.7956595838,-0.0012671699,-0.0003783663,-0.1745179083,0.0007140742,-0.0009218942
558339.1300235860,9.7967178095,0.0011776377,-0.0003861314,-0.1745504781,0.0007683273,-0.0018005492
558339.1400235860,9.7946162023,-0.0078301348,-0.0005249945,-0.1744961950,0.0006706717,-0.0009001990
558339.1500235860,9.7941091335,0.0039127703,-0.0009733463,-0.1744419119,0.0007357755,-0.0018005492
558339.1600235860,9.7924730657,-0.0049410856,-0.0000483775,-0.1744310552,0.0007249248,-0.0010086749
558339.1700235860,9.7974741120,0.0046884666,0.0005241879,-0.1744636251,0.0007249248,-0.0015510546
558339.1800235860,9.7958562859,-0.0110286145,0.0003784493,-0.1744853384,0.0007249248,-0.0012690172
558339.1900235860,9.7944081681,0.0045243368,-0.0014331340,-0.1745070516,0.0007249248,-0.0013124075
558339.2000235860,9.7953509731,-0.0000482746,-0.0002227611,-0.1744853384,0.0007357755,-0.0015510546
558339.2100235861,9.7955173345,-0.0020308464,0.0005376122,-0.1744419119,0.0007357755,-0.0009435894
558339.2200235859,9.7959634638,-0.0009608655,-0.0003807643,-0.1744636251,0.0007249248,-0.0018439396
558339.2300235860,9.7955169904,-0.0056906591,-0.0012941791,-0.1744853384,0.0007249248,-0.0008242658
558339.2400235860,9.7953151061,0.0072734341,-0.0011344713,-0.1745179083,0.0007249248,-0.0018547872
558339.2500235860,9.7923396255,-0.0092126034,0.0002559576,-0.1745179083,0.0007249248,-0.0009761321
558339.2600235860,9.7958064276,0.0030035841,0.0009949059,-0.1745070516,0.0007249248,-0.0015619022
558339.2700235860,9.7953655593,-0.0069112914,-0.0017509977,-0.1744961950,0.0007140742,-0.0013557979
558339.2800235860,9.7962476255,0.0034638739,-0.0008388081,-0.1744636251,0.0007357755,-0.0011279984
558339.2900235860,9.7956782843,-0.0032506448,0.0009933147,-0.1745070516,0.0007466261,-0.0016595305
558339.3000235860,9.7953677168,-0.0034040751,0.0002332336,-0.1744961950,0.0007032236,-0.0009869797
558339.3100235860,9.7950387930,0.0020857823,-0.0000667372,-0.1745179083,0.0007574767,-0.0018222444
558339.3200235860,9.7953608000,-0.0056910761,-0.0017504396,-0.1744527685,0.0006706717,-0.0008893514
558339.3300235861,9.7957870748,0.0045296171,-0.0006820039,-0.1744201986,0.0007466261,-0.0017788541
558339.3400235859,9.7950780862,-0.0076760098,0.0000813081,-0.1744527685,0.0007249248,-0.0009652845
558339.3500235860,9.7959396671,0.0051402112,-0.0003779740,-0.1744527685,0.0007357755,-0.0016378353
558339.3600235860,9.7947645155,-0.0073717899,-0.0008310734,-0.1745070516,0.0007140742,-0.0012256268
558339.3700235860,9.7951738173,0.0037648286,-0.0014398265,-0.1744961950,0.0007249248,-0.0013015599
558339.3800235860,9.7959856477,-0.0047744551,0.0005325503,-0.1745287649,0.0007466261,-0.0015835974
558339.3900235860,9.7968915106,-0.0005003664,0.0014419496,-0.1745179083,0.0007140742,-0.0010086749
558339.4000235860,9.7962607423,0.0004132662,-0.0006876935,-0.1745504781,0.0007357755,-0.0018005492
558339.4100235860,9.7949069368,-0.0047782071,-0.0008311563,-0.1745070516,0.0006923730,-0.0008242658
558339.4200235860,9.7953366951,0.0036123715,-0.0002210869,-0.1744853384,0.0007249248,-0.0018656348
558339.4300235860,9.7949339948,-0.0085920744,0.0006921974,-0.1744093420,0.0007249248,-0.0009544369
558339.4400235860,9.7960916931,0.0062083166,0.0000787748,-0.1744527685,0.0007357755,-0.0016378353
558339.4500235860,9.7949188351,-0.0078287454,-0.0008325514,-0.1744419119,0.0007140742,-0.0012581696
558339.4600235861,9.7947210005,0.0028477218,-0.0012839290,-0.1744093420,0.0007140742,-0.0012690172
558339.4700235859,9.7944421644,-0.0032547443,-0.0009791623,-0.1744527685,0.0007140742,-0.0016378353
558339.4800235860,9.7952067957,-0.0018792923,-0.0000698196,-0.1744310552,0.0007249248,-0.0009001990
558339.4900235860,9.7960992837,0.0027005446,-0.0006853784,-0.1745287649,0.0007357755,-0.0018547872
558339.5000235860,9.7950688757,-0.0084379501,-0.0014441382,-0.1744527685,0.0007140742,-0.0008676562
558339.5100235860,9.7962417337,0.0055991119,-0.0005328120,-0.1745721914,0.0007466261,-0.0017680065
558339.5200235860,9.7944691364,-0.0079835648,0.0000862436,-0.1745179083,0.0007140742,-0.0010737605
558339.5300235860,9.7951824328,0.0046792957,0.0000856896,-0.1745396215,0.0007140742,-0.0014859690
558339.5400235860,9.7953728417,-0.0072166925,-0.0009885884,-0.1745504781,0.0007357755,-0.0013666455
558339.5500235860,9.7953358708,0.0013250232,-0.0014422113,-0.1745830480,0.0007032236,-0.0012039316
558339.5600235860,9.7952090607,-0.0037093375,-0.0006806957,-0.1745504781,0.0007357755,-0.0017137685
558339.5700235860,9.7947497573,-0.0023386794,-0.0002187325,-0.1744527685,0.0007249248,-0.0009001990
558339.5800235861,9.7962585060,0.0025482958,0.0000758319,-0.1744527685,0.0007249248,-0.0018439396
558339.5900235859,9.7941585403,-0.0084419795,-0.0008264868,-0.1744419119,0.0006923730,-0.0008351134
558339.6000235860,9.7954837324,0.0034608170,-0.0009849742,-0.1744527685,0.0007249248,-0.0018330920
558339.6100235860,9.7946174208,-0.0078302043,-0.0003724847,-0.1744527685,0.0007140742,-0.0010086749
558339.6200235860,9.7962502632,0.0055986258,0.0005347563,-0.1744961950,0.0007466261,-0.0015619022
558339.6300235860,9.7949224620,-0.0081339381,-0.0005276714,-0.1745287649,0.0007249248,-0.0012907123
558339.6400235860,9.7956356151,0.0030040004,-0.0012914717,-0.1745287649,0.0007140742,-0.0012690172
558339.6500235860,9.7953609720,-0.0038611697,-0.0008345440,-0.1745504781,0.0007466261,-0.0016378353
558339.6600235860,9.7956686796,-0.0017251673,0.0005364829,-0.1745070516,0.0007032236,-0.0009761321
558339.6700235860,9.7955005908,0.0013249541,0.0000816175,-0.1745287649,0.0007357755,-0.0018113968
558339.6800235860,9.7950647686,-0.0067602928,-0.0011383514,-0.1744853384,0.0006923730,-0.0008351134
558339.6900235860,9.7956375719,0.0043763260,-0.0003757854,-0.1744853384,0.0007466261,-0.0018547872
558339.7000235860,9.7947771234,-0.0093549176,-0.0002219412,-0.1745070516,0.0007140742,-0.0010086749
558339.7100235861,9.7957895692,0.0051394470,-0.0000716858,-0.1744419119,0.0007466261,-0.0015727498
558339.7200235859,9.7952154614,-0.0069120556,-0.0014447094,-0.1744636251,0.0007140742,-0.0013449503
558339.7300235860,9.7951834219,0.0022393511,-0.0009829948,-0.1744853384,0.0007249248,-0.0011388460
558339.7400235860,9.7952164864,-0.0024898166,0.0008449599,-0.1744961950,0.0007249248,-0.0017463113
558339.7500235860,9.7955182663,-0.0050807598,-0.0008363708,-0.1744961950,0.0007357755,-0.0008676562
558339.7600235860,9.7965436282,0.0042281063,-0.0016035456,-0.1745396215,0.0007357755,-0.0018981776
558339.7700235860,9.7944544856,-0.0082877159,-0.0018965228,-0.1745070516,0.0007140742,-0.0008893514
558339.7800235860,9.7960982659,0.0048355049,0.0002306567,-0.1745070516,0.0007140742,-0.0017246161
558339.7900235860,9.7937100600,-0.0085968683,0.0002448180,-0.1744636251,0.0007249248,-0.0011171509
558339.8000235860,9.7966955968,0.0046862429,-0.0014520953,-0.1744853384,0.0007249248,-0.0014642738
558339.8100235860,9.7950557302,-0.0056923267,-0.0017479021,-0.1745070516,0.0007357755,-0.0013883407
558339.8200235870,9.7954969353,0.0013251624,-0.0003759117,-0.1745287649,0.0007140742,-0.0012039316
558339.8300235870,9.7953743756,-0.0038619336,0.0008430633,-0.1745179083,0.0007249248,-0.0016703781
558339.8400235870,9.7952018644,-0.0024889833,-0.0009851572,-0.1744961950,0.0007140742,-0.0009761321
558339.8500235870,9.7959381045,0.0014804679,-0.0023622751,-0.1744961950,0.0007357755,-0.0018005492
558339.8600235870,9.7947621358,-0.0067616823,-0.0008307944,-0.1743984853,0.0007140742,-0.0009001990
558339.8700235870,9.7958034530,0.0037662187,0.0009952547,-0.1744527685,0.0007357755,-0.0017680065
558339.8800235870,9.7946245312,-0.0099655117,-0.0005259710,-0.1744527685,0.0007032236,-0.0010303701
558339.8900235870,9.7963784567,0.0059056243,-0.0023640583,-0.1745070516,0.0007683273,-0.0015835974
558339.9000235870,9.7947602364,-0.0075240391,-0.0014411822,-0.1745287649,0.0007140742,-0.0012581696
558339.9100235871,9.7958039332,0.0023937542,0.0003845879,-0.1745287649,0.0007574767,-0.0013341027
558339.9200235870,9.7955268245,-0.0047762615,0.0003838468,-0.1745070516,0.0007140742,-0.0015185118
558339.9300235870,9.7957914901,-0.0003504110,-0.0025143531,-0.1745070516,0.0007249248,-0.0010520653
558339.9400235870,9.7954888860,-0.0000468160,-0.0020541469,-0.1745396215,0.0007466261,-0.0018330920
558339.9500235870,9.7947694755,-0.0064571145,0.0002369134,-0.1744961950,0.0007249248,-0.0008134182
558339.9600235870,9.7945777908,0.0048289743,0.0008533831,-0.1744961950,0.0006815223,-0.0018873300
558339.9700235870,9.7949223760,-0.0090488913,-0.0009856193,-0.1744961950,0.0007357755,-0.0009761321
558339.9800235870,9.7974569955,0.0040794699,-0.0019162473,-0.1744853384,0.0007466261,-0.0015835974
558339.9900235870,9.7952282127,-0.0073702613,-0.0000723309,-0.1744419119,0.0007466261,-0.0012907123
558340.0000235870,9.7964129404,0.0033112779,0.0006849510,-0.1743659154,0.0007032236,-0.0012473220
558340.0100235870,9.7949105636,-0.0050833998,-0.0005262763,-0.1747024710,0.0007140742,-0.0015835974
558340.0200235870,9.7956364322,-0.0012658506,-0.0032760517,-0.1744527685,0.0007357755,-0.0010629129
558340.0300235871,9.7959447920,0.0013275937,-0.0015997960,-0.1746916143,0.0007357755,-0.0017788541
558340.0400235869,9.7943083013,-0.0055438288,0.0002411382,-0.1746156179,0.0007032236,-0.0008893514
558340.0500235870,9.7953415405,0.0033071093,0.0002363029,-0.1745396215,0.0007140742,-0.0018656348
558340.0600235870,9.7936941907,-0.0089009500,-0.0018904581,-0.1744527685,0.0006815223,-0.0009218942
558340.0700235870,9.7971418121,0.0066711769,-0.0019125240,-0.1744310552,0.0008008792,-0.0016378353
558340.0800235870,9.7953843171,-0.0082847975,-0.0000740181,-0.1744310552,0.0007140742,-0.0012473220
558340.0900235870,9.7958129717,0.0013257880,0.0009941386,-0.1744527685,0.0007140742,-0.0012581696
558340.1000235870,9.7950510855,-0.0032521737,-0.0011367470,-0.1745396215,0.0007357755,-0.0016595305
558340.1100235870,9.7954851444,-0.0009615609,-0.0029696240,-0.1745287649,0.0007249248,-0.0009652845
558340.1200235870,9.7950459607,0.0005604437,0.0000850750,-0.1745721914,0.0007140742,-0.0017788541
558340.1300235870,9.7943203430,-0.0070694452,0.0010029894,-0.1744853384,0.0007249248,-0.0009001990
558340.1400235870,9.7951895718,0.0028489727,0.0000848526,-0.1744961950,0.0006815223,-0.0018113968
558340.1500235870,9.7945992006,-0.0072191939,-0.0023548325,-0.1744636251,0.0007357755,-0.0009761321
558340.1600235871,9.7962337990,0.0054470711,-0.0016004501,-0.1744853384,0.0007683273,-0.0016595305
558340.1700235870,9.7946276491,-0.0092032243,0.0002369265,-0.1745070516,0.0007249248,-0.0012039316
558340.1800235870,9.7954983258,0.0031549993,0.0006924936,-0.1745070516,0.0007249248,-0.0013557979
558340.1900235870,9.7955194848,-0.0050808292,-0.0006838610,-0.1744527685,0.0007357755,-0.0015727498
558340.2000235870,9.7953399206,-0.0009626028,-0.0020532967,-0.1744961950,0.0007249248,-0.0009761321
558340.2100235870,9.7964181513,0.0004136137,-0.0000789232,-0.1745179083,0.0007574767,-0.0018330920
558340.2200235870,9.7946193490,-0.0067628630,0.0003905524,-0.1744527685,0.0006815223,-0.0008351134
558340.2300235870,9.7960909262,0.0045309371,-0.0008370511,-0.1744853384,0.0007357755,-0.0018656348
558340.2400235870,9.7950555295,-0.0078272174,-0.0028164470,-0.1744527685,0.0007466261,-0.0009978273
558340.2500235870,9.7966969014,0.0056011266,-0.0008416377,-0.1744636251,0.0007249248,-0.0015727498
558340.2600235870,9.7949315864,-0.0082869511,0.0005398271,-0.1744853384,0.0007249248,-0.0013015599
558340.2700235870,9.7945757193,0.0022367111,-0.0006729003,-0.1744527685,0.0006815223,-0.0012581696
558340.2800235871,9.7941261280,-0.0032553699,-0.0023492127,-0.1745070516,0.0006815223,-0.0016378353
558340.2900235869,9.7959627542,-0.0020282762,-0.0009912916,-0.1744961950,0.0007249248,-0.0009544369
558340.3000235870,9.7964308452,-0.0006545608,0.0009881568,-0.1745070516,0.0008117298,-0.0018439396
558340.3100235870,9.7949086642,-0.0058457566,-0.0011366641,-0.1744961950,0.0006706717,-0.0009001990
558340.3200235870,9.7954656555,0.0055967493,-0.0022040757,-0.1744961950,0.0007249248,-0.0018222444
558340.3300235870,9.7946118659,-0.0085923528,-0.0014404018,-0.1744636251,0.0007466261,-0.0009652845
558340.3400235870,9.7967071297,0.0042281066,-0.0002322265,-0.1744961950,0.0007249248,-0.0015944450
558340.3500235870,9.7944672369,-0.0087459216,-0.0005241443,-0.1744853384,0.0006815223,-0.0012907123
558340.3600235870,9.7954807005,0.0036134828,-0.0012899239,-0.1745179083,0.0007032236,-0.0013124075
558340.3700235870,9.7952138774,-0.0043195841,-0.0003759553,-0.1745070516,0.0007900286,-0.0015835974
558340.3800235870,9.7962720171,-0.0027897297,-0.0008416681,-0.1745396215,0.0007574767,-0.0009652845
558340.3900235870,9.7954999099,0.0005625278,-0.0003762605,-0.1745070516,0.0006598211,-0.0018656348
558340.4000235870,9.7946060314,-0.0058471460,-0.0008291071,-0.1744853384,0.0006815223,-0.0008351134
558340.4100235871,9.7954748087,0.0057487208,-0.0009839278,-0.1744419119,0.0007683273,-0.0018005492
558340.4200235870,9.7950767243,-0.0092008624,-0.0008344480,-0.1744310552,0.0007574767,-0.0010086749
558340.4300235870,9.7965629523,0.0023970889,-0.0000792851,-0.1744419119,0.0007140742,-0.0015727498
558340.4400235870,9.7938445754,-0.0058503419,-0.0006702537,-0.1744527685,0.0006272692,-0.0013883407
558340.4500235870,9.7959399753,0.0019378403,-0.0019045365,-0.1744636251,0.0007683273,-0.0011713888
558340.4600235870,9.7958095957,-0.0021813589,-0.0011426024,-0.1745504781,0.0008225805,-0.0017246161
558340.4700235870,9.7959705167,-0.0037061417,-0.0008395492,-0.1745070516,0.0007140742,-0.0008893514
558340.4800235870,9.7951846118,0.0019342973,-0.0009831343,-0.1745396215,0.0006598211,-0.0018656348
558340.4900235870,9.7944557615,-0.0076778166,-0.0014387145,-0.1744853384,0.0007140742,-0.0008893514
558340.5000235870,9.7959347931,0.0051404889,-0.0009880131,-0.1745504781,0.0007683273,-0.0017788541
558340.5100235870,9.7950798136,-0.0087435594,-0.0002241997,-0.1745287649,0.0007574767,-0.0010737605
558340.5200235870,9.7961024016,0.0034628320,0.0000775192,-0.1745070516,0.0007357755,-0.0014642738
558340.5300235871,9.7952112110,-0.0067593204,-0.0019021689,-0.1745179083,0.0007032236,-0.0014534263
558340.5400235869,9.7948757431,0.0004083331,-0.0022013724,-0.1744636251,0.0006706717,-0.0011388460
558340.5500235870,9.7956602360,-0.0008097280,-0.0000731376,-0.1744527685,0.0007357755,-0.0016920733
558340.5600235870,9.7955245308,-0.0032512006,0.0008420736,-0.1744310552,0.0007249248,-0.0009544369
558340.5700235870,9.7961063653,0.0002602528,-0.0009915140,-0.1744527685,0.0007574767,-0.0018222444
558340.5800235870,9.7953673154,-0.0076738566,-0.0019038562,-0.1744527685,0.0006706717,-0.0009110466
558340.5900235870,9.7957810110,0.0048349487,-0.0012919034,-0.1744419119,0.0007140742,-0.0018113968
558340.6000235870,9.7940097756,-0.0072228755,0.0002429083,-0.1744310552,0.0007466261,-0.0009869797
558340.6100235870,9.7967125413,0.0034653332,0.0000724442,-0.1744853384,0.0007574767,-0.0015727498
558340.6200235870,9.7949139038,-0.0084384365,-0.0017478890,-0.1744853384,0.0007032236,-0.0013557979
558340.6300235870,9.7950126668,0.0028497362,-0.0029640739,-0.1745396215,0.0006706717,-0.0012364744
558340.6400235870,9.7950498670,-0.0032521043,-0.0012892568,-0.1745396215,0.0007357755,-0.0016703781
558340.6500235870,9.7949125778,-0.0031011054,0.0006947086,-0.1745070516,0.0007249248,-0.0009544369
558340.6600235871,9.7958074167,0.0005636395,-0.0000737785,-0.1744853384,0.0007900286,-0.0018330920
558340.6700235870,9.7944430675,-0.0066096421,-0.0025057945,-0.1744527685,0.0006815223,-0.0008676562
558340.6800235870,9.7953257573,0.0039179808,-0.0014410255,-0.1744636251,0.0007032236,-0.0018113968
558340.6900235870,9.7941627620,-0.0088996991,-0.0005216765,-0.1744201986,0.0007249248,-0.0010086749
558340.7000235870,9.7965570318,0.0042273425,0.0000740617,-0.1744853384,0.0007249248,-0.0016269878
558340.7100235870,9.7947656766,-0.0079818282,-0.0009838622,-0.1744419119,0.0007140742,-0.0012364744
558340.7200235870,9.7947143131,0.0030005959,-0.0020464081,-0.1744310552,0.0007140742,-0.0013341027
558340.7300235870,9.7945963694,-0.0049316373,-0.0015912374,-0.1744310552,0.0007357755,-0.0015944450
558340.7400235870,9.7952050683,-0.0008117427,0.0002356882,-0.1744201986,0.0007140742,-0.0009652845
558340.7500235870,9.7961124005,-0.0003500631,-0.0005342638,-0.1745070516,0.0007574767,-0.0018981776
558340.7600235870,9.7944484504,-0.0076773999,-0.0023537731,-0.1744961950,0.0007249248,-0.0008351134
558340.7700235870,9.7960764474,0.0060566923,-0.0019039218,-0.1745504781,0.0007466261,-0.0018330920
558340.7800235871,9.7941645754,-0.0090522954,-0.0003692365,-0.1744636251,0.0006598211,-0.0010412177
558340.7900235869,9.7961042150,0.0033102357,0.0002299592,-0.1745287649,0.0007357755,-0.0015510546
558340.8000235870,9.7950652775,-0.0078277729,-0.0015963690,-0.1745721914,0.0007357755,-0.0013774931
558340.8100235870,9.7953292981,0.0026978349,-0.0015940933,-0.1746807577,0.0007683273,-0.0012256268
558340.8200235870,9.7950589628,-0.0037101017,-0.0003744075,-0.1746373312,0.0007140742,-0.0016595305
558340.8300235870,9.7952097416,-0.0029469113,-0.0002228177,-0.1745287649,0.0006706717,-0.0009544369
558340.8400235870,9.7961027671,0.0008704300,-0.0011437448,-0.1744853384,0.0007466261,-0.0019090252
558340.8500235870,9.7939950675,-0.0081369954,-0.0020451566,-0.1744310552,0.0007249248,-0.0008351134
558340.8600235870,9.7960867044,0.0049886567,-0.0011418613,-0.1744093420,0.0007683273,-0.0018113968
558340.8700235870,9.7944665560,-0.0095083479,-0.0009820223,-0.1744419119,0.0006815223,-0.0010520653
558340.8800235870,9.7960946104,0.0048357132,-0.0002268725,-0.1744636251,0.0007032236,-0.0015185118
558340.8900235880,9.7953667492,-0.0072163453,-0.0017511372,-0.1745287649,0.0007357755,-0.0014317311
558340.9000235880,9.7951790281,0.0008671644,-0.0022037006,-0.1745179083,0.0007683273,-0.0011496936
558340.9100235880,9.7958175303,-0.0020293181,-0.0000749643,-0.1745396215,0.0007574767,-0.0016703781
558340.9200235880,9.7955195995,-0.0038608916,-0.0000732639,-0.1744961950,0.0006489705,-0.0009978273
558340.9300235880,9.7961111820,-0.0003499937,-0.0006867735,-0.1744636251,0.0007140742,-0.0017788541
558340.9400235880,9.7948898204,-0.0053872037,-0.0032715915,-0.1744853384,0.0007466261,-0.0009761321
558340.9500235880,9.7956387044,0.0034613034,-0.0006812234,-0.1744201986,0.0007466261,-0.0017680065
558340.9600235880,9.7940156387,-0.0096630978,-0.0002157371,-0.1744310552,0.0006815223,-0.0010303701
558340.9700235880,9.7968554141,0.0043814671,-0.0006909548,-0.1744853384,0.0007683273,-0.0016595305
558340.9800235881,9.7944436051,-0.0073721378,-0.0028111628,-0.1744636251,0.0006706717,-0.0012473220
558340.9900235879,9.7953395550,0.0016297993,-0.0008320328,-0.1744636251,0.0007249248,-0.0012907123
558341.0000235880,9.7952235681,-0.0049301084,0.0005388243,-0.1744527685,0.0007249248,-0.0016269878
