t(s),acc_x,acc_y,acc_z,gyro_x,gyro_y,gyro_z
557721.0000230100,-0.0024115377,9.7930926279,-0.0001136845,-0.0008009824,0.0001389912,0.0000001513
557721.0100230100,-0.0007813188,9.7915772920,-0.0068387675,0.0009252217,0.0000847381,0.0000001513
557721.0200230100,0.0007270651,9.7949300403,0.0117575390,-0.0007466993,0.0001064393,-0.0000106963
557721.0300230100,-0.0003646344,9.7905140486,-0.0124859231,-0.0000084485,0.0001281405,0.0000001513
557721.0400230100,-0.0020711025,9.7933968491,0.0044592103,0.0005560963,0.0000738874,0.0000109989
557721.0500230100,-0.0013022780,9.7940095971,0.0055207139,-0.0010723981,0.0001172899,-0.0000106963
557721.0600230100,0.0005408270,9.7905183558,-0.0137136136,0.0007949421,0.0000955887,0.0000001513
557721.0700230100,-0.0001814856,9.7944684301,0.0123749811,-0.0003015774,0.0001064393,0.0000001513
557721.0800230100,-0.0018423757,9.7914200410,-0.0060674073,-0.0005295667,0.0001064393,-0.0000215439
557721.0900230100,-0.0012139298,9.7917264849,-0.0036321866,0.0008817951,0.0000955887,0.0000109989
557721.1000230100,0.0000956159,9.7950812465,0.0091700178,-0.0010181150,0.0001172899,0.0000001513
557721.1100230101,-0.0005190401,9.7900560509,-0.0129423929,0.0003823902,0.0001064393,0.0000109989
557721.1200230099,-0.0012747613,9.7950754801,0.0094864559,0.0001218311,0.0000955887,0.0000001513
557721.1300230100,-0.0013456354,9.7929446168,-0.0004276549,-0.0008226957,0.0000955887,0.0000001513
557721.1400230100,-0.0000357320,9.7912764061,-0.0091328971,0.0010012181,0.0000955887,0.0000001513
557721.1500230100,-0.0003418118,9.7958406859,0.0120718582,-0.0007358426,0.0001064393,0.0000109989
557721.1600230100,-0.0018765799,9.7905070321,-0.0107956284,-0.0000953015,0.0001172899,0.0000109989
557721.1700230100,-0.0010046053,9.7930963111,0.0041451701,0.0006212360,0.0001064393,0.0000001513
557721.1800230100,-0.0003851978,9.7944707212,0.0059708400,-0.0010398282,0.0001172899,0.0000001513
557721.1900230100,-0.0002151314,9.7906673397,-0.0127921416,0.0007189457,0.0001064393,0.0000001513
557721.2000230100,-0.0012553225,9.7944644003,0.0116213135,-0.0002147244,0.0000955887,-0.0000215439
557721.2100230100,-0.0016830673,9.7921827453,-0.0048482492,-0.0005838498,0.0001172899,-0.0000106963
557721.2200230100,0.0001546339,9.7918848476,-0.0041010648,0.0009143650,0.0001172899,0.0000001513
557721.2300230101,-0.0006512181,9.7950772174,0.0111589883,-0.0009855451,0.0001064393,-0.0000106963
557721.2400230099,-0.0011249006,9.7902057990,-0.0123272091,0.0002629673,0.0000738874,0.0000109989
557721.2500230100,-0.0006763552,9.7934012267,0.0071929673,0.0002955372,0.0001064393,0.0000001513
557721.2600230100,-0.0008861886,9.7930988806,-0.0001263719,-0.0009312620,0.0001172899,-0.0000106963
557721.2700230100,-0.0005025186,9.7908175745,-0.0105018880,0.0009143650,0.0001064393,0.0000001513
557721.2800230100,-0.0007897545,9.7949233014,0.0128377946,-0.0006164197,0.0001064393,0.0000001513
557721.2900230100,-0.0009564678,9.7908154904,-0.0100405525,-0.0001495846,0.0000955887,0.0000001513
557721.3000230100,0.0003492790,9.7926455383,0.0015408763,0.0006538059,0.0000847381,0.0000001513
557721.3100230100,-0.0002284125,9.7943186113,0.0064270308,-0.0010723981,0.0001498418,0.0000001513
557721.3200230100,-0.0015807206,9.7897463424,-0.0123236122,0.0006320927,0.0000955887,0.0000001513
557721.3300230100,-0.0011100700,9.7947704266,0.0108576355,-0.0000735882,0.0001172899,-0.0000215439
557721.3400230110,-0.0006116388,9.7924918984,-0.0042469518,-0.0006815595,0.0001064393,0.0000001513
557721.3500230110,0.0004432109,9.7914295590,-0.0063914579,0.0009252217,0.0000955887,0.0000001513
557721.3600230110,-0.0009423181,9.7946176917,0.0126864141,-0.0009204053,0.0001389912,0.0000001513
557721.3700230110,-0.0011188654,9.7895954830,-0.0118699589,0.0001761142,0.0000847381,0.0000109989
557721.3800230110,-0.0000826510,9.7935571575,0.0052053352,0.0004366733,0.0000955887,0.0000001513
557721.3900230110,-0.0005615653,9.7937089890,0.0026165453,-0.0010181150,0.0001172899,-0.0000106963
557721.4000230110,-0.0008076457,9.7902063552,-0.0108046490,0.0008275120,0.0000847381,0.0000001513
557721.4100230110,-0.0012455458,9.7947688292,0.0129940409,-0.0004644269,0.0001172899,0.0000001513
557721.4200230110,-0.0003316774,9.7911221426,-0.0080628611,-0.0002907208,0.0000955887,0.0000001513
557721.4300230111,-0.0004311069,9.7921859422,-0.0008931454,0.0007515156,0.0000738874,0.0000109989
557721.4400230109,-0.0014304141,9.7943125675,0.0087248271,-0.0010941114,0.0001172899,0.0000001513
557721.4500230110,-0.0009791105,9.7897493296,-0.0133962555,0.0005343830,0.0000847381,0.0000109989
557721.4600230110,-0.0005067038,9.7940108487,0.0096321337,0.0000349781,0.0001172899,-0.0000215439
557721.4700230110,-0.0008971838,9.7927945212,-0.0016516090,-0.0008009824,0.0001498418,-0.0000106963
557721.4800230110,-0.0006288126,9.7912729329,-0.0069926855,0.0009577916,0.0000738874,0.0000001513
557721.4900230110,-0.0009483532,9.7952280077,0.0122291639,-0.0008118390,0.0001172899,0.0000218465
557721.5000230110,-0.0003585992,9.7899037327,-0.0120286728,0.0000458347,0.0001064393,0.0000109989
557721.5100230110,-0.0003962217,9.7938613774,0.0042929537,0.0004800999,0.0000738874,0.0000001513
557721.5200230110,-0.0002406836,9.7934043525,0.0044439854,-0.0010506849,0.0001389912,-0.0000106963
557721.5300230110,-0.0012701245,9.7902047571,-0.0114108819,0.0008383686,0.0001172899,0.0000001513
557721.5400230110,-0.0011057335,9.7955326446,0.0117730428,-0.0003667172,0.0000847381,0.0000001513
557721.5500230110,-0.0003261511,9.7915793067,-0.0071475932,-0.0004427136,0.0001498418,-0.0000106963
557721.5600230111,0.0001704745,9.7918839449,-0.0021184379,0.0008166554,0.0000738874,0.0000109989
557721.5700230110,-0.0005048330,9.7944682211,0.0100898723,-0.0010506849,0.0001064393,-0.0000106963
557721.5800230110,-0.0020510766,9.7902026723,-0.0136921845,0.0004366733,0.0001281405,0.0000001513
557721.5900230110,-0.0005146098,9.7941637922,0.0087171449,0.0001761142,0.0000955887,0.0000001513
557721.6000230110,-0.0010284092,9.7926401886,0.0009422559,-0.0008986921,0.0001172899,0.0000001513
557721.6100230110,0.0001191825,9.7906669238,-0.0091344448,0.0009252217,0.0000955887,0.0000001513
557721.6200230110,-0.0012546129,9.7955318110,0.0122318408,-0.0006381330,0.0001064393,0.0000001513
557721.6300230110,-0.0008100254,9.7908164628,-0.0108043700,-0.0001170148,0.0000955887,0.0000001513
557721.6400230110,-0.0001119526,9.7929488552,0.0012398025,0.0006320927,0.0001064393,0.0000001513
557721.6500230110,-0.0006896727,9.7943169437,0.0059733078,-0.0010506849,0.0001064393,-0.0000323915
557721.6600230110,-0.0008186123,9.7902069801,-0.0121772369,0.0007080891,0.0000955887,0.0000001513
557721.6700230110,-0.0011045724,9.7949226064,0.0116202540,-0.0001930112,0.0000955887,0.0000109989
557721.6800230111,-0.0012309889,9.7917274570,-0.0057673232,-0.0005947064,0.0001064393,0.0000001513
557721.6900230109,0.0003059217,9.7915805580,-0.0044074926,0.0009035084,0.0000955887,-0.0000106963
557721.7000230110,-0.0004980882,9.7949253158,0.0111576498,-0.0009746885,0.0001389912,0.0000109989
557721.7100230110,-0.0014403421,9.7900526465,-0.0136973292,0.0002846805,0.0000955887,0.0000001513
557721.7200230110,-0.0011320891,9.7938567233,0.0076545120,0.0002955372,0.0000955887,0.0000001513
557721.7300230110,-0.0005653068,9.7927942441,0.0017010682,-0.0009529752,0.0001172899,-0.0000106963
557721.7400230110,-0.0006477424,9.7908165326,-0.0095855607,0.0009035084,0.0000955887,0.0000001513
557721.7500230110,-0.0006450969,9.7953818546,0.0120741864,-0.0005947064,0.0001389912,0.0000001513
557721.7600230110,-0.0012603191,9.7908141704,-0.0098855052,-0.0001930112,0.0000955887,0.0000001513
557721.7700230110,-0.0010198510,9.7929446869,0.0021624735,0.0006646626,0.0000738874,0.0000001513
557721.7800230110,-0.0005243865,9.7938593633,0.0073444176,-0.0010832548,0.0001389912,-0.0000106963
557721.7900230110,-0.0011262052,9.7892909152,-0.0129376667,0.0006646626,0.0000847381,0.0000001513
557721.8000230110,-0.0003461482,9.7950784680,0.0111564508,-0.0001495846,0.0000955887,0.0000001513
557721.8100230111,-0.0007642310,9.7918813043,-0.0045509816,-0.0005947064,0.0001172899,0.0000001513
557721.8200230110,0.0001521682,9.7915800021,-0.0045587336,0.0008926518,0.0000847381,0.0000001513
557721.8300230110,-0.0012650132,9.7950749246,0.0107065340,-0.0009312620,0.0001498418,0.0000001513
557721.8400230110,-0.0011352149,9.7906638658,-0.0133945682,0.0002738239,0.0000847381,0.0000001513
557721.8500230110,-0.0006781112,9.7941637919,0.0073458258,0.0002738239,0.0000955887,0.0000001513
557721.8600230110,-0.0002656773,9.7932532837,0.0012412108,-0.0009204053,0.0001172899,0.0000001513
557721.8700230110,-0.0006568669,9.7909695456,-0.0106530592,0.0008709385,0.0000847381,0.0000001513
557721.8800230110,-0.0011021067,9.7952274519,0.0120779228,-0.0006164197,0.0001172899,0.0000001513
557721.8900230110,-0.0004946126,9.7906646310,-0.0095868992,-0.0001930112,0.0001389912,0.0000109989
557721.9000230110,0.0000460513,9.7927966758,0.0018485031,0.0006755192,0.0000955887,0.0000001513
557721.9100230110,-0.0008336494,9.7946208168,0.0071947941,-0.0010723981,0.0001172899,-0.0000106963
557721.9200230110,-0.0012859651,9.7902056598,-0.0133935087,0.0006212360,0.0001064393,0.0000001513
557721.9300230111,-0.0009496291,9.7946181084,0.0117713556,-0.0000627316,0.0000955887,0.0000001513
557721.9400230109,-0.0002986917,9.7920352210,-0.0034871498,-0.0007141294,0.0001172899,0.0000001513
557721.9500230110,-0.0010821382,9.7914233062,-0.0063787705,0.0009360783,0.0000847381,0.0000001513
557721.9600230110,-0.0017110851,9.7946149126,0.0119302090,-0.0008878354,0.0001389912,0.0000109989
557721.9700230110,-0.0008130860,9.7906641442,-0.0112619690,0.0001761142,0.0001172899,0.0000001513
557721.9800230110,0.0000686940,9.7938628366,0.0052042060,0.0003715336,0.0000847381,0.0000001513
557721.9900230110,-0.0007219775,9.7941662917,0.0018554745,-0.0010072584,0.0001064393,-0.0000215439
557722.0000230110,-0.0011084364,9.7903573538,-0.0101920028,0.0008492253,0.0000955887,0.0000109989
557722.0100230110,-0.0010990747,9.7950747861,0.0123828726,-0.0004535703,0.0001064393,0.0000001513
557722.0200230110,-0.0003425866,9.7917327363,-0.0091301503,-0.0003667172,0.0001064393,-0.0000106963
557722.0300230110,-0.0005836131,9.7924903013,-0.0007392274,0.0007840855,0.0001064393,0.0000109989
557722.0400230110,-0.0011186282,9.7944659283,0.0096374179,-0.0010723981,0.0001172899,0.0000001513
557722.0500230110,-0.0006855735,9.7902087164,-0.0146186617,0.0005452396,0.0001172899,0.0000001513
557722.0600230111,-0.0000600083,9.7946233182,0.0085610382,0.0001001178,0.0000955887,0.0000001513
557722.0700230110,-0.0008946895,9.7934043511,-0.0010412909,-0.0008986921,0.0001172899,-0.0000106963
557722.0800230110,-0.0007898484,9.7915777781,-0.0079063358,0.0010012181,0.0000955887,0.0000001513
557722.0900230110,-0.0009465398,9.7950754114,0.0123816039,-0.0007575559,0.0001172899,0.0000109989
557722.1000230110,-0.0009710612,9.7911213080,-0.0117180203,-0.0000953015,0.0001064393,0.0000109989
557722.1100230110,-0.0005585907,9.7929463544,0.0026161965,0.0005778095,0.0000738874,0.0000001513
557722.1200230110,-0.0014511574,9.7940087635,0.0059795119,-0.0010506849,0.0001172899,0.0000001513
557722.1300230110,-0.0009680866,9.7903586734,-0.0117183691,0.0007623722,0.0000847381,0.0000001513
557722.1400230110,0.0001217708,9.7946222770,0.0122200037,-0.0002798642,0.0001172899,-0.0000215439
557722.1500230110,-0.0007721370,9.7920342478,-0.0054659704,-0.0005729932,0.0001172899,-0.0000106963
557722.1600230110,-0.0013664647,9.7917258596,-0.0036309179,0.0009577916,0.0000847381,0.0000001513
557722.1700230110,-0.0006493760,9.7952296055,0.0114640776,-0.0009964017,0.0001498418,0.0000109989
557722.1800230111,-0.0003798801,9.7903624244,-0.0144686197,0.0002303974,0.0000955887,0.0000001513
557722.1900230109,-0.0000759349,9.7937092677,0.0061204636,0.0003932468,0.0000847381,0.0000001513
557722.2000230110,-0.0014664605,9.7932471705,0.0036915168,-0.0010181150,0.0001172899,0.0000001513
557722.2100230110,-0.0011230585,9.7903581870,-0.0120221199,0.0008926518,0.0000847381,0.0000001513
557722.2200230110,0.0001169541,9.7952325235,0.0119152632,-0.0004861401,0.0001172899,0.0000109989
557722.2300230110,-0.0001779240,9.7911226985,-0.0079116200,-0.0003884305,0.0001064393,-0.0000106963
557722.2400230110,-0.0004334866,9.7927960498,-0.0008928664,0.0008166554,0.0000847381,0.0000001513
557722.2500230110,-0.0012742237,9.7943129844,0.0091810876,-0.0010506849,0.0001172899,0.0000001513
557722.2600230110,-0.0002279401,9.7905155766,-0.0144698187,0.0005343830,0.0000955887,0.0000001513
557722.2700230110,0.0001089908,9.7947754983,0.0106949758,0.0000349781,0.0000955887,0.0000001513
557722.2800230110,-0.0012004402,9.7926406743,-0.0014966315,-0.0008118390,0.0001389912,0.0000001513
557722.2900230110,-0.0014060805,9.7915756242,-0.0086638097,0.0009686482,0.0000738874,0.0000001513
557722.3000230110,-0.0008006637,9.7955338952,0.0117705054,-0.0008335523,0.0001498418,0.0000001513
557722.3100230111,-0.0003530729,9.7903608968,-0.0111134050,0.0000241214,0.0001064393,0.0000001513
557722.3200230110,-0.0012981423,9.7926369243,0.0053675764,0.0005235264,0.0000847381,0.0000001513
557722.3300230110,-0.0013005793,9.7926370632,0.0050625568,-0.0010181150,0.0001172899,0.0000001513
557722.3400230110,-0.0005183878,9.7905134928,-0.0126371641,0.0007840855,0.0000847381,0.0000001513
557722.3500230110,-0.0001941222,9.7961465734,0.0116131997,-0.0003558606,0.0000955887,-0.0000106963
557722.3600230110,-0.0013865557,9.7918794976,-0.0060710043,-0.0004861401,0.0001389912,0.0000001513
557722.3700230110,-0.0010504570,9.7914215009,-0.0024135168,0.0008709385,0.0000955887,0.0000001513
557722.3800230110,-0.0002064507,9.7946223458,0.0093248557,-0.0010398282,0.0001064393,-0.0000106963
557722.3900230110,-0.0008229488,9.7894447621,-0.0130926442,0.0003823902,0.0001064393,0.0000001513
557722.4000230110,-0.0008154578,9.7937048220,0.0090244926,0.0002303974,0.0000955887,0.0000001513
557722.4100230120,-0.0016470210,9.7932481423,0.0001850611,-0.0009529752,0.0001172899,0.0000109989
557722.4200230120,0.0002601273,9.7905157165,-0.0106608809,0.0009360783,0.0001064393,0.0000218465
557722.4300230120,0.0005824648,9.7950814558,0.0128264458,-0.0006272763,0.0001172899,0.0000001513
557722.4400230120,-0.0017167053,9.7908122251,-0.0097291893,-0.0002364377,0.0001064393,0.0000001513
557722.4500230120,-0.0017880518,9.7924843964,0.0012535494,0.0007949421,0.0000955887,0.0000001513
557722.4600230120,0.0002414060,9.7946247771,0.0081009715,-0.0010832548,0.0001064393,0.0000001513
557722.4700230120,0.0005449914,9.7894506674,-0.0137141019,0.0006103794,0.0000955887,0.0000001513
557722.4800230120,-0.0009593772,9.7946186639,0.0105512775,-0.0000301617,0.0001172899,0.0000109989
557722.4900230120,-0.0025885001,9.7924834226,-0.0034679095,-0.0007575559,0.0001172899,0.0000001513
557722.5000230120,-0.0003194636,9.7914264326,-0.0063851142,0.0009577916,0.0000847381,0.0000109989
557722.5100230119,0.0008832555,9.7949304572,0.0122137995,-0.0008986921,0.0001172899,0.0000001513
557722.5200230120,-0.0008179887,9.7903594376,-0.0120246573,0.0001761142,0.0001064393,0.0000001513
557722.5300230120,-0.0017568795,9.7935500711,0.0056768206,0.0004366733,0.0000955887,0.0000001513
557722.5400230120,-0.0002607459,9.7938629748,0.0021565483,-0.0010072584,0.0001172899,0.0000218465
557722.5500230120,0.0010294606,9.7900609844,-0.0100573948,0.0008817951,0.0000955887,0.0000001513
557722.5600230120,-0.0010905165,9.7953792844,0.0136030902,-0.0004644269,0.0000955887,-0.0000106963
557722.5700230120,-0.0026197010,9.7911127635,-0.0080438300,-0.0004535703,0.0001172899,0.0000001513
557722.5800230120,-0.0002865353,9.7917295422,-0.0021147015,0.0008492253,0.0000847381,0.0000001513
557722.5900230120,0.0011682056,9.7947803613,0.0096185264,-0.0010615415,0.0001064393,0.0000001513
557722.6000230120,-0.0009894248,9.7902073964,-0.0144636145,0.0004800999,0.0000847381,0.0000001513
557722.6100230120,-0.0014321989,9.7947701482,0.0087250364,0.0001761142,0.0000955887,0.0000109989
557722.6200230120,-0.0005829895,9.7926427588,-0.0005866479,-0.0009746885,0.0001172899,0.0000109989
557722.6300230121,0.0004212204,9.7908208401,-0.0094419321,0.0009795048,0.0000955887,0.0000109989
557722.6400230119,-0.0010838864,9.7946164415,0.0140602707,-0.0006381330,0.0001172899,0.0000001513
557722.6500230120,-0.0023274685,9.7906572665,-0.0098766938,-0.0002690076,0.0001064393,0.0000001513
557722.6600230120,-0.0007410507,9.7921849694,-0.0015006470,0.0008057987,0.0000955887,0.0000109989
557722.6700230120,0.0013250196,9.7949332357,0.0102273664,-0.0011266813,0.0001172899,0.0000001513
557722.6800230120,0.0004004198,9.7899070674,-0.0124925458,0.0006103794,0.0000847381,0.0000001513
557722.6900230120,-0.0017263308,9.7944632883,0.0099475124,0.0000241214,0.0001064393,0.0000109989
557722.7000230120,-0.0013542223,9.7923351341,-0.0018005218,-0.0008335523,0.0001389912,0.0000001513
557722.7100230120,0.0001319912,9.7908186869,-0.0074567678,0.0009252217,0.0000847381,0.0000001513
557722.7200230120,-0.0000240193,9.7950787464,0.0132890500,-0.0007901258,0.0001064393,-0.0000106963
557722.7300230120,-0.0015800683,9.7902037843,-0.0120183834,-0.0000193051,0.0001064393,0.0000001513
557722.7400230120,-0.0016293383,9.7933996277,0.0024727772,0.0006429493,0.0000738874,0.0000001513
557722.7500230120,-0.0002223486,9.7940132797,0.0070369303,-0.0010832548,0.0001498418,0.0000001513
557722.7600230119,0.0000923467,9.7903634670,-0.0126423088,0.0007080891,0.0000955887,0.0000001513
557722.7700230120,-0.0006433408,9.7946192895,0.0119213278,-0.0001930112,0.0001064393,0.0000001513
557722.7800230120,-0.0026031508,9.7921792714,-0.0054506758,-0.0006489896,0.0001172899,0.0000109989
557722.7900230120,-0.0007740078,9.7915768754,-0.0059237090,0.0009252217,0.0000738874,0.0000001513
557722.8000230120,0.0001138648,9.7947752205,0.0113050149,-0.0009529752,0.0001172899,0.0000001513
557722.8100230120,-0.0001999718,9.7899040108,-0.0112673928,0.0002955372,0.0001172899,-0.0000106963
557722.8200230120,-0.0014402195,9.7937031542,0.0071994505,0.0003172504,0.0000847381,0.0000109989
557722.8300230120,-0.0016446414,9.7926380346,0.0001847821,-0.0009638318,0.0001172899,0.0000001513
557722.8400230120,0.0002626217,9.7911255464,-0.0100505629,0.0008383686,0.0000955887,0.0000001513
557722.8500230120,0.0001291678,9.7955368136,0.0135930100,-0.0005838498,0.0000955887,-0.0000106963
557722.8600230120,-0.0015659552,9.7912704311,-0.0097302487,-0.0001821545,0.0001389912,0.0000001513
557722.8700230120,-0.0016440178,9.7927904921,0.0003373616,0.0007080891,0.0000847381,0.0000218465
557722.8800230121,0.0000858392,9.7947768176,0.0077972904,-0.0010181150,0.0001064393,0.0000001513
557722.8900230119,-0.0002043083,9.7891417928,-0.0121828001,0.0006320927,0.0001064393,0.0000001513
557722.9000230120,-0.0000424403,9.7935548660,0.0102381573,-0.0001278714,0.0001064393,0.0000001513
557722.9100230120,-0.0009276178,9.7931012415,-0.0053117036,-0.0006598462,0.0001064393,0.0000001513
557722.9200230120,-0.0024452043,9.7914171232,-0.0051472738,0.0008709385,0.0000847381,0.0000001513
557722.9300230120,0.0004262744,9.7950810389,0.0123701852,-0.0008878354,0.0001172899,0.0000001513
557722.9400230120,0.0007055183,9.7902133023,-0.0123424340,0.0002846805,0.0000955887,0.0000001513
557722.9500230120,-0.0011400524,9.7933996981,0.0064342247,0.0003498203,0.0000955887,0.0000001513
557722.9600230120,-0.0037715719,9.7929337791,0.0014227620,-0.0009964017,0.0001389912,0.0000109989
557722.9700230120,-0.0004958311,9.7906647004,-0.0097394089,0.0008817951,0.0000738874,0.0000001513
557722.9800230120,0.0021035348,9.7949354594,0.0122036496,-0.0005838498,0.0001172899,-0.0000106963
557722.9900230120,-0.0011095976,9.7909673920,-0.0100392140,-0.0002364377,0.0001389912,0.0000001513
557723.0000230120,-0.0025513499,9.7923288125,0.0011073135,0.0007406590,0.0000738874,0.0000001513
557723.0100230119,-0.0011326267,9.7946192191,0.0079598803,-0.0010506849,0.0001064393,0.0000218465
557723.0200230120,0.0022253411,9.7897623910,-0.0132703892,0.0006103794,0.0001064393,0.0000109989
557723.0300230120,-0.0005139002,9.7952312029,0.0093276722,-0.0001061581,0.0001064393,0.0000001513
557723.0400230120,-0.0024322810,9.7927888239,-0.0028589997,-0.0007358426,0.0001172899,-0.0000106963
557723.0500230120,-0.0006154090,9.7912721691,-0.0053150782,0.0009252217,0.0000955887,0.0000001513
557723.0600230120,0.0014909581,9.7949330972,0.0119037050,-0.0008552655,0.0001064393,0.0000001513
557723.0700230120,-0.0011285562,9.7902060073,-0.0127847384,0.0001544010,0.0001064393,0.0000001513
557723.0800230120,-0.0019051353,9.7937016950,0.0062881982,0.0003606769,0.0001064393,0.0000109989
557723.0900230120,-0.0013193945,9.7934006005,0.0030802788,-0.0009855451,0.0001064393,0.0000109989
557723.1000230120,0.0010252388,9.7905187040,-0.0103622051,0.0008817951,0.0000738874,0.0000001513
557723.1100230120,-0.0003400557,9.7950781208,0.0119189996,-0.0005621366,0.0001064393,-0.0000215439
557723.1200230120,-0.0024732586,9.7911137359,-0.0088076475,-0.0003341473,0.0002691987,-0.0000106963
557723.1300230121,-0.0007209310,9.7923363158,0.0010920887,0.0007949421,0.0006055680,0.0000218465
557723.1400230119,0.0028539956,9.7946342958,0.0105195591,-0.0010506849,0.0026888877,0.0000109989
557723.1500230120,0.0022283730,9.7896097252,-0.0129654394,0.0005995228,0.0046202987,0.0000001513
557723.1600230120,-0.0021960919,9.7947670913,0.0085788703,0.0000458347,0.0054232448,0.0000001513
557723.1700230120,-0.0019411816,9.7926362980,0.0012548878,-0.0008226957,0.0067361702,0.0000001513
557723.1800230120,0.0010600380,9.7912791860,-0.0056340538,0.0009903614,0.0075933695,0.0000001513
557723.1900230120,0.0016307704,9.7956969126,0.0106827070,-0.0006815595,0.0079405895,-0.0000106963
557723.2000230120,-0.0006520502,9.7903592990,-0.0103483187,-0.0000084485,0.0091450087,0.0000001513
557723.2100230120,-0.0033005062,9.7935448599,0.0034018616,0.0006212360,0.0098068967,0.0000001513
557723.2200230120,0.0005488555,9.7940159200,0.0080981550,-0.0010072584,0.0107509009,0.0000109989
557723.2300230120,0.0017811686,9.7900647357,-0.0114363264,0.0007840855,0.0115972496,0.0000001513
557723.2400230120,0.0005678427,9.7950822891,0.0109963287,-0.0002472943,0.0122374364,-0.0000215439
557723.2500230120,-0.0019717016,9.7920280652,-0.0028631546,-0.0005404233,0.0133876024,-0.0000106963
557723.2600230119,-0.0010480200,9.7914213620,-0.0021084973,0.0009903614,0.0144943660,0.0000001513
557723.2700230120,0.0013195507,9.7950860404,0.0096173972,-0.0008769788,0.0149826441,0.0000001513
557723.2800230120,0.0005535783,9.7900601501,-0.0123412350,0.0003606769,0.0161870633,0.0000001513
557723.2900230120,-0.0006707429,9.7947733440,0.0085661829,0.0003606769,0.0170985157,0.0000001513
557723.3000230120,-0.0023835693,9.7924810620,0.0030887414,-0.0008986921,0.0175650925,0.0000001513
557723.3100230120,0.0011783400,9.7900618180,-0.0105161929,0.0009469349,0.0188129142,0.0000001513
557723.3200230120,0.0022530091,9.7947837661,0.0117447818,-0.0004752835,0.0196375616,-0.0000215439
557723.3300230120,0.0001423915,9.7912755732,-0.0059314609,-0.0001495846,0.0203645533,0.0000001513
557723.3400230120,-0.0017837440,9.7929416299,0.0020163074,0.0008383686,0.0215364207,0.0000001513
557723.3500230120,-0.0009880551,9.7941628191,0.0067383243,-0.0009312620,0.0221115037,0.0000001513
557723.3600230120,0.0028483180,9.7902216396,-0.0114451378,0.0006320927,0.0231097611,-0.0000106963
557723.3700230120,0.0011755166,9.7947799447,0.0105335849,0.0000458347,0.0240429147,-0.0000106963
557723.3800230121,-0.0037917489,9.7921724638,-0.0014752722,-0.0006381330,0.0244769396,0.0000001513
557723.3900230119,0.0009124345,9.7918882518,-0.0047174475,0.0009795048,0.0258983713,0.0000001513
557723.4000230120,0.0016324978,9.7946293630,0.0103771992,-0.0006924161,0.0267447199,0.0000001513
557723.4100230120,-0.0011200266,9.7902055212,-0.0117171701,0.0003172504,0.0270919399,-0.0000215439
557723.4200230120,0.0004030367,9.7941674050,0.0090145520,0.0004800999,0.0290559027,-0.0000106963
557723.4300230120,-0.0023926651,9.7929390594,0.0021738921,-0.0008769788,0.0290993052,-0.0000106963
557723.4400230120,0.0007189505,9.7905175229,-0.0105121774,0.0010229313,0.0296526870,0.0000001513
557723.4500230120,0.0028754198,9.7957005260,0.0137227523,-0.0004427136,0.0310307162,-0.0000323915
557723.4600230120,-0.0006337440,9.7906632419,-0.0079080231,-0.0001278714,0.0315515461,-0.0000215439
557723.4700230120,-0.0013243832,9.7921809406,0.0018596427,0.0009252217,0.0325606541,0.0000109989
557723.4800230120,0.0008509507,9.7947798051,0.0080959663,-0.0009421186,0.0337976252,-0.0000106963
557723.4900230130,-0.0000535294,9.7899049832,-0.0120312103,0.0007298023,0.0340580402,-0.0000106963
557723.5000230130,0.0004225328,9.7941662940,0.0114547081,0.0001326877,0.0353818162,-0.0000432391
557723.5100230130,-0.0012059092,9.7927934790,-0.0021066008,-0.0006489896,0.0365319823,-0.0000215439
557723.5200230130,-0.0001687135,9.7918846387,-0.0063861737,0.0011423543,0.0368575010,0.0000001513
557723.5300230130,0.0025654186,9.7950895844,0.0128099522,-0.0006381330,0.0382029783,-0.0000215439
557723.5400230130,0.0007061419,9.7903657598,-0.0121898545,0.0001761142,0.0385718995,0.0000001513
557723.5500230130,-0.0008453543,9.7932490467,0.0050590297,0.0007623722,0.0394725013,-0.0000106963
557723.5600230130,-0.0008331405,9.7935533367,0.0067367765,-0.0009529752,0.0407962774,-0.0000215439
557723.5700230130,0.0007146427,9.7900602893,-0.0112749354,0.0009469349,0.0413062567,-0.0000215439
557723.5800230131,0.0010290743,9.7947789722,0.0112974025,-0.0000518750,0.0421309040,-0.0000106963
557723.5900230129,0.0004566718,9.7920387640,-0.0044085520,-0.0004752835,0.0434004270,-0.0000215439
557723.6000230130,-0.0012194561,9.7912693208,-0.0045474544,0.0011640675,0.0436174395,0.0000109989
557723.6100230130,0.0004354275,9.7952330103,0.0135903330,-0.0007684125,0.0448978130,0.0000001513
557723.6200230130,0.0004046702,9.7897543321,-0.0120350863,0.0004692432,0.0459611741,0.0000001513
557723.6300230130,-0.0006897301,9.7937069749,0.0056680092,0.0005452396,0.0461998878,-0.0000323915
557723.6400230130,-0.0002534349,9.7938625581,0.0030716069,-0.0008444089,0.0475779170,-0.0000215439
557723.6500230130,0.0008812335,9.7905175927,-0.0092933680,0.0010989277,0.0485219213,-0.0000215439
557723.6600230130,-0.0000392937,9.7946221378,0.0111537041,-0.0002147244,0.0485761744,-0.0000215439
557723.6700230130,0.0013651651,9.7918904054,-0.0053312927,-0.0001712979,0.0503882285,-0.0000215439
557723.6800230130,-0.0013450978,9.7921821211,-0.0007330232,0.0009903614,0.0508656559,0.0000001513
557723.6900230130,-0.0005157996,9.7944688461,0.0087172844,-0.0007792691,0.0518096602,-0.0000106963
557723.7000230131,0.0008713994,9.7896031950,-0.0109713939,0.0007298023,0.0530466313,-0.0000106963
557723.7100230129,0.0010083310,9.7944751683,0.0085520873,0.0002303974,0.0534047018,-0.0000323915
557723.7200230130,-0.0013469399,9.7920297330,-0.0010381125,-0.0005404233,0.0537844737,-0.0000106963
557723.7300230130,-0.0000034559,9.7911220738,-0.0051677131,0.0011749241,0.0557592871,0.0000001513
557723.7400230130,0.0001163592,9.7953850505,0.0119153329,-0.0005729932,0.0560848058,0.0000001513
557723.7500230130,0.0007219825,9.7903648571,-0.0102072276,0.0002738239,0.0568660507,-0.0000215439
557723.7600230130,-0.0006964749,9.7932498803,0.0046002317,0.0007406590,0.0581355737,-0.0000323915
557723.7700230130,-0.0005408220,9.7940127929,0.0053618605,-0.0007792691,0.0587432086,-0.0000323915
557723.7800230130,0.0001106530,9.7906674098,-0.0102020132,0.0010446446,0.0596221091,-0.0000106963
557723.7900230130,0.0010235767,9.7946267925,0.0105347839,-0.0001278714,0.0604901590,-0.0000215439
557723.8000230130,0.0009165989,9.7908205634,-0.0047179358,-0.0001387280,0.0610218395,-0.0000106963
557723.8100230130,-0.0002670105,9.7920334156,0.0004781039,0.0010337880,0.0625192256,-0.0000106963
557723.8200230130,-0.0009825001,9.7949249676,0.0078062414,-0.0007358426,0.0630400555,-0.0000106963
557723.8300230131,0.0014779122,9.7899108888,-0.0112813489,0.0007406590,0.0638755535,-0.0000323915
557723.8400230129,0.0008704468,9.7947786941,0.0105361224,0.0002955372,0.0650148690,-0.0000323915
557723.8500230130,-0.0002748591,9.7927963279,-0.0001315863,-0.0005078534,0.0654597445,-0.0000215439
557723.8600230130,-0.0007759072,9.7908145186,-0.0065340968,0.0012292073,0.0664905538,0.0000001513
557723.8700230130,0.0007173457,9.7952355802,0.0106901102,-0.0004644269,0.0677058236,-0.0000106963
557723.8800230130,0.0005743216,9.7903639541,-0.0095959198,0.0002846805,0.0681941016,-0.0000432391
557723.8900230130,0.0002168638,9.7927962595,0.0041348807,0.0008275120,0.0692140602,-0.0000106963
557723.9000230130,-0.0011527751,9.7941628882,0.0052144954,-0.0007466993,0.0701038114,-0.0000323915
557723.9100230130,0.0008714281,9.7899081794,-0.0108187447,0.0010772145,0.0707439982,-0.0000215439
557723.9200230130,0.0019582822,9.7946294331,0.0129673276,-0.0000518750,0.0721328780,-0.0000432391
557723.9300230130,-0.0003212484,9.7918840134,-0.0063849049,-0.0001712979,0.0724909485,-0.0000215439
557723.9400230130,-0.0001346240,9.7915777100,-0.0022685497,0.0012400639,0.0734024009,0.0000001513
557723.9500230131,0.0002518063,9.7950816635,0.0096262783,-0.0007249860,0.0746827745,-0.0000106963
557723.9600230129,0.0010172755,9.7900616788,-0.0115824924,0.0007623722,0.0750408451,-0.0000323915
557723.9700230130,0.0007136328,9.7946258197,0.0099272824,0.0004583866,0.0760391024,-0.0000323915
557723.9800230130,-0.0008898441,9.7930990890,-0.0005839011,-0.0006055631,0.0771892685,-0.0000323915
557723.9900230130,-0.0003353329,9.7911223509,-0.0085203903,0.0013052037,0.0776775466,0.0000001513
557724.0000230130,0.0008918711,9.7958449243,0.0137393156,-0.0003558606,0.0790989782,-0.0000323915
557724.0100230130,-0.0003396407,9.7906651174,-0.0092831484,0.0002195408,0.0799561775,-0.0000215439
557724.0200230130,-0.0013286050,9.7926386602,0.0015548324,0.0010337880,0.0799453269,-0.0000106963
557724.0300230130,0.0007081639,9.7947786243,0.0093173131,-0.0007901258,0.0813667585,-0.0000432391
557724.0400230130,0.0005516788,9.7892977933,-0.0129516228,0.0010663578,0.0821805553,-0.0000323915
557724.0500230130,0.0002627442,9.7947760541,0.0108462169,0.0002303974,0.0829400990,-0.0000323915
557724.0600230130,0.0004725124,9.7920378613,-0.0024259252,-0.0003992871,0.0842855763,-0.0000323915
557724.0700230130,-0.0003164030,9.7915787512,-0.0059275152,0.0013594868,0.0847196012,0.0000001513
557724.0800230131,0.0011944465,9.7952363450,0.0131264601,-0.0005078534,0.0858046636,-0.0000323915
557724.0900230129,-0.0000449425,9.7905144659,-0.0106583434,0.0005126697,0.0865750578,-0.0000215439
557724.1000230130,-0.0010099882,9.7941640690,0.0039931486,0.0007732289,0.0872477965,-0.0000323915
557724.1100230130,0.0008295265,9.7937135749,0.0048927731,-0.0006598462,0.0885064688,-0.0000540867
557724.1200230130,-0.0000346282,9.7900563991,-0.0095909844,0.0012183507,0.0894396224,-0.0000215439
557724.1300230130,0.0008753495,9.7950834008,0.0112988107,0.0000024082,0.0899496017,-0.0000323915
557724.1400230130,0.0006042180,9.7908197294,-0.0056304569,-0.0000518750,0.0913493321,-0.0000215439
557724.1500230130,-0.0012072424,9.7915736108,-0.0028697076,0.0013160603,0.0915771952,-0.0000215439
557724.1600230130,0.0007210012,9.7952353718,0.0111476394,-0.0006489896,0.0924669464,-0.0000215439
557724.1700230130,0.0019367354,9.7899126952,-0.0111326453,0.0007406590,0.0938992287,-0.0000323915
557724.1800230130,-0.0000685378,9.7946238043,0.0074934699,0.0006863758,0.0943658055,-0.0000649343
557724.1900230130,0.0005067453,9.7932558546,0.0024549451,-0.0006381330,0.0951579010,-0.0000215439
557724.2000230131,0.0007262616,9.7905171063,-0.0095971188,0.0013703435,0.0964599758,-0.0000215439
557724.2100230129,0.0002768287,9.7955377166,0.0129817023,-0.0000844449,0.0969699551,-0.0000106963
557724.2200230130,0.0004455906,9.7908194513,-0.0063917369,-0.0000193051,0.0978488556,-0.0000215439
557724.2300230130,-0.0001309398,9.7918824861,-0.0016583712,0.0013377736,0.0989773205,-0.0000215439
557724.2400230130,0.0005568761,9.7950829140,0.0096237408,-0.0006707028,0.0995090010,-0.0000540867
557724.2500230130,0.0013186612,9.7897581532,-0.0121952084,0.0008709385,0.1005940634,-0.0000323915
557724.2600230130,-0.0011320604,9.7941617077,0.0078071613,0.0006212360,0.1014838145,-0.0000323915
557724.2700230130,0.0004945029,9.7926465802,0.0006245490,-0.0004861401,0.1017984826,-0.0000215439
557724.2800230130,0.0012101072,9.7909749658,-0.0060929913,0.0013703435,0.1033392711,-0.0000215439
557724.2900230130,-0.0001953407,9.7961466428,0.0114606899,-0.0002472943,0.1041747691,-0.0000215439
557724.3000230130,0.0007353574,9.7900591089,-0.0086822695,0.0003498203,0.1048475078,-0.0000323915
557724.3100230130,-0.0004127433,9.7930998538,0.0018524488,0.0010880711,0.1060410763,-0.0000323915
557724.3200230130,0.0015989745,9.7944787804,0.0061068562,-0.0006598462,0.1066487113,-0.0000432391
557724.3300230131,0.0008775493,9.7902128166,-0.0099035466,0.0012183507,0.1073540018,-0.0000215439
557724.3400230129,-0.0011081992,9.7952277991,0.0113153740,0.0002412540,0.1086235247,-0.0000540867
557724.3500230130,0.0009209927,9.7921927501,-0.0034972299,-0.0001278714,0.1091443547,-0.0000215439
557724.3600230130,0.0009142479,9.7917356554,-0.0045650075,0.0013377736,0.1098387946,-0.0000323915
557724.3700230130,0.0008753495,9.7950834008,0.0112988107,-0.0004969968,0.1110649150,-0.0000649343
557724.3800230130,0.0007164562,9.7899076930,-0.0111224954,0.0007949421,0.1114446868,-0.0000540867
557724.3900230130,0.0004005997,9.7941675439,0.0087095325,0.0007949421,0.1131807866,-0.0000106963
557724.4000230130,0.0000302681,9.7934075473,0.0001711747,-0.0004752835,0.1136690646,-0.0000323915
557724.4100230130,0.0018031591,9.7906734546,-0.0083858522,0.0014029134,0.1142224464,-0.0000323915
557724.4200230130,0.0009009668,9.7953869270,0.0146541649,-0.0001387280,0.1156655794,-0.0000432391
557724.4300230130,-0.0015575116,9.7903549919,-0.0091206283,0.0003172504,0.1160670524,-0.0000540867
557724.4400230130,0.0021694123,9.7934160928,0.0006109417,0.0011640675,0.1170870110,-0.0000432391
557724.4500230131,0.0019167956,9.7940218252,0.0074766973,-0.0005729932,0.1181829240,-0.0000540867
557724.4600230129,0.0001081300,9.7897525955,-0.0109649805,0.0012074940,0.1186386502,-0.0000323915
557724.4700230130,0.0002664284,9.7950808302,0.0114563954,0.0004041035,0.1198756213,-0.0000432391
557724.4800230130,0.0007574912,9.7921927498,-0.0048685490,-0.0002472943,0.1209389824,-0.0000323915
557724.4900230130,0.0012016063,9.7912804362,-0.0070079104,0.0014571965,0.1211885467,-0.0000432391
557724.5000230130,0.0010461907,9.7953879689,0.0137378376,-0.0003341473,0.1225774265,-0.0000757819
557724.5100230130,0.0002631592,9.7903630507,-0.0103559312,0.0005886662,0.1233261195,-0.0000432391
557724.5200230130,-0.0002473997,9.7932522422,0.0035288571,0.0010772145,0.1238252482,-0.0000432391
557724.5300230130,0.0012816623,9.7938682554,0.0042789976,-0.0005078534,0.1251707255,-0.0000432391
557724.5400230130,0.0013382433,9.7906719954,-0.0092971045,0.0012943471,0.1257458086,-0.0000432391
557724.5500230130,0.0011944178,9.7949313606,0.0129738108,0.0002629673,0.1266030078,-0.0000540867
557724.5600230140,-0.0004658773,9.7917304446,-0.0054686474,0.0000024082,0.1279701864,-0.0000323915
557724.5700230140,0.0007672106,9.7918872099,-0.0038011202,0.0014354832,0.1281546470,-0.0000323915
557724.5800230140,0.0019454449,9.7941726856,0.0111370013,-0.0004318570,0.1288273857,-0.0000649343
557724.5900230140,0.0007122344,9.7903654126,-0.0114273057,0.0008926518,0.1304766804,-0.0000432391
557724.6000230140,0.0002407251,9.7938623508,0.0076430934,0.0008709385,0.1310734647,-0.0000540867
557724.6100230140,0.0000351134,9.7931022851,0.0006285645,-0.0003884305,0.1321368258,-0.0000215439
557724.6200230140,0.0007268852,9.7906695637,-0.0094445393,0.0014571965,0.1330808301,-0.0000323915
557724.6300230140,0.0017990885,9.7950866664,0.0123587666,-0.0000627316,0.1330808301,-0.0000540867
557724.6400230140,0.0008965365,9.7912791857,-0.0070053729,0.0003823902,0.1348386311,-0.0000649343
557724.6500230141,-0.0004304833,9.7923383996,-0.0007405659,0.0012617772,0.1353811622,-0.0000323915
557724.6600230139,0.0010052704,9.7943228497,0.0080944883,-0.0004752835,0.1362383615,-0.0000540867
557724.6700230140,0.0019397674,9.7897600294,-0.0108276956,0.0012074940,0.1372583201,-0.0000432391
557724.6800230140,-0.0000587611,9.7949282332,0.0088661972,0.0005560963,0.1379093575,-0.0000649343
557724.6900230140,0.0007788294,9.7923440268,-0.0021233036,-0.0001712979,0.1391571792,-0.0000432391
557724.7000230140,0.0013699532,9.7909751744,-0.0051792015,0.0014897664,0.1395369510,-0.0000432391
557724.7100230140,0.0017899641,9.7952396793,0.0112912680,-0.0002690076,0.1404701046,-0.0000757819
557724.7200230140,0.0014949713,9.7899099167,-0.0091462123,0.0007623722,0.1416853745,-0.0000540867
557724.7300230140,0.0005183355,9.7934076871,0.0039801125,0.0010229313,0.1424232169,-0.0000432391
557724.7400230140,0.0003536155,9.7934077563,0.0024562836,-0.0003667172,0.1433455199,-0.0000540867
557724.7500230140,0.0021198190,9.7908265377,-0.0068632223,0.0014571965,0.1444197316,-0.0000432391
557724.7600230140,0.0008820083,9.7946255423,0.0119086405,0.0000892612,0.1450490678,-0.0000866295
557724.7700230140,-0.0006355000,9.7914258070,-0.0077551646,0.0003172504,0.1457760595,-0.0000540867
557724.7800230141,0.0001754059,9.7924936360,-0.0012031004,0.0013594868,0.1469153750,-0.0000432391
557724.7900230139,0.0014568112,9.7946300571,0.0074807825,-0.0004318570,0.1476098149,-0.0000540867
557724.8000230140,0.0025572467,9.7900670983,-0.0097650627,0.0012726338,0.1483476573,-0.0000540867
557724.8100230140,0.0010204874,9.7941694895,0.0099245356,0.0006646626,0.1495954790,-0.0000540867
557724.8200230140,-0.0002973872,9.7929501047,-0.0028766922,-0.0001930112,0.1503333214,-0.0000540867
557724.8300230140,0.0009043851,9.7905162733,-0.0063956826,0.0016417592,0.1511796700,-0.0000540867
557724.8400230140,0.0014885498,9.7952382205,0.0117513348,-0.0002581509,0.1522104793,-0.0000866295
557724.8500230140,0.0026897193,9.7905263459,-0.0120537685,0.0007949421,0.1528506660,-0.0000757819
557724.8600230140,-0.0000899908,9.7932525897,0.0041376274,0.0011532109,0.1537078653,-0.0000323915
557724.8700230140,-0.0000972158,9.7941679595,0.0036805167,-0.0004210004,0.1547820770,-0.0000540867
557724.8800230140,0.0020892990,9.7902183049,-0.0109812648,0.0015549062,0.1548471808,-0.0000323915
557724.8900230140,0.0034928418,9.7953976261,0.0144800866,0.0001869709,0.1565941311,-0.0000757819
557724.9000230141,0.0004431822,9.7911245746,-0.0065441072,0.0002738239,0.1572017661,-0.0000757819
557724.9100230139,0.0000154739,9.7915784741,-0.0025748380,0.0014897664,0.1579938616,-0.0000649343
557724.9200230140,0.0013201456,9.7949335135,0.0096173274,-0.0003775739,0.1594478451,-0.0000649343
557724.9300230140,0.0013168764,9.7902157340,-0.0121949992,0.0012074940,0.1596431563,-0.0000540867
557724.9400230140,0.0013297790,9.7937130204,0.0102268084,0.0007949421,0.1605112062,-0.0000649343
557724.9500230140,0.0014029962,9.7924982216,-0.0002981917,-0.0001495846,0.1620085923,-0.0000649343
557724.9600230140,0.0007305980,9.7912793242,-0.0086817115,0.0016526158,0.1621822022,-0.0000649343
557724.9700230140,0.0014963984,9.7944753081,0.0123610250,-0.0000518750,0.1633649202,-0.0000757819
557724.9800230140,0.0023980817,9.7908293159,-0.0102209745,0.0005886662,0.1645259369,-0.0000649343
557724.9900230140,0.0020253783,9.7931099971,0.0015271295,0.0014246266,0.1647646506,-0.0000432391
557725.0000230140,0.0006995770,9.7941691416,0.0079444462,-0.0003667172,0.1662077835,-0.0000757819
557725.0100230140,-0.0005177643,9.7906659503,-0.0124845846,0.0013812001,0.1671843397,-0.0000649343
557725.0200230140,0.0025598923,9.7946324203,0.0118946844,0.0006320927,0.1674230534,-0.0000540867
557725.0300230141,0.0021443325,9.7923500709,-0.0030497808,-0.0000301617,0.1687902319,-0.0000866295
557725.0400230139,0.0015078660,9.7909766330,-0.0070105874,0.0016743291,0.1693870162,-0.0000649343
557725.0500230140,0.0008869970,9.7958452021,0.0131292766,-0.0001712979,0.1702442155,-0.0000540867
557725.0600230140,0.0001002527,9.7902105235,-0.0117273200,0.0008492253,0.1712858753,-0.0000649343
557725.0700230140,0.0018966186,9.7932605100,0.0045786631,0.0012509205,0.1718718090,-0.0000540867
557725.0800230140,0.0018936440,9.7940231446,0.0045790119,-0.0003124341,0.1730111245,-0.0000649343
557725.0900230140,0.0016341600,9.7905212746,-0.0105197898,0.0015223363,0.1740961868,-0.0000757819
557725.1000230140,0.0001144884,9.7949276780,0.0114575944,0.0004258167,0.1743891536,-0.0000649343
557725.1100230140,0.0012083225,9.7914325465,-0.0060927821,0.0001978275,0.1756695272,-0.0000757819
557725.1200230140,0.0013755655,9.7923472917,-0.0038059859,0.0016417592,0.1758214359,-0.0000540867
557725.1300230140,0.0005580086,9.7941678914,0.0093183028,-0.0002147244,0.1752138010,-0.0000649343
557725.1400230140,-0.0006678621,9.7906651861,-0.0121782963,0.0010663578,0.1746604192,-0.0000757819
557725.1500230141,0.0002260743,9.7935581997,0.0056603270,0.0010120747,0.1743674524,-0.0000649343
557725.1600230139,0.0014000216,9.7932608562,-0.0002978429,-0.0001930112,0.1742155437,-0.0000866295
557725.1700230140,0.0008770117,9.7909753123,-0.0095981783,0.0016417592,0.1742589462,-0.0000649343
557725.1800230140,0.0007204063,9.7953878988,0.0111477092,0.0001109745,0.1743457512,-0.0000757819
557725.1900230140,0.0005744076,9.7912789073,-0.0091379720,0.0005669529,0.1743457512,-0.0000540867
557725.2000230140,0.0014115544,9.7928027199,0.0009220259,0.0014897664,0.1743566018,-0.0000432391
557725.2100230140,0.0015928820,9.7944791276,0.0053443074,-0.0003124341,0.1743783030,-0.0000757819
557725.2200230140,0.0005407983,9.7902133714,-0.0138662628,0.0013812001,0.1743131993,-0.0000866295
557725.2300230140,0.0011681769,9.7944753769,0.0094658771,0.0006646626,0.1743891536,-0.0000649343
557725.2400230140,0.0003090109,9.7920378610,-0.0037972442,0.0000024082,0.1744759586,-0.0000866295
557725.2500230140,0.0010508848,9.7911272146,-0.0068542016,0.0016743291,0.1743891536,-0.0000540867
557725.2600230140,0.0013244534,9.7953907471,0.0103800855,-0.0001061581,0.1744651080,-0.0000649343
557725.2700230140,0.0005676341,9.7905168282,-0.0103583989,0.0009143650,0.1744868093,-0.0000866295
557725.2800230141,0.0000571039,9.7937110040,0.0036790387,0.0012292073,0.1743566018,-0.0000757819
557725.2900230139,0.0006617746,9.7938663098,0.0030639945,-0.0003124341,0.1743891536,-0.0000649343
557725.3000230140,0.0010185227,9.7903665937,-0.0112773334,0.0015549062,0.1744000043,-0.0000866295
557725.3100230140,0.0007210299,9.7955403562,0.0113002887,0.0003281071,0.1744325561,-0.0000866295
557725.3200230140,0.0008946944,9.7911267976,-0.0073104622,0.0003389637,0.1744108549,-0.0000757819
557725.3300230140,0.0012345634,9.7918885302,-0.0025848484,0.0015874761,0.1744217055,-0.0000540867
557725.3400230140,0.0005427916,9.7943212516,0.0074882554,-0.0003015774,0.1744651080,-0.0000757819
557725.3500230140,0.0003968216,9.7905172445,-0.0126447765,0.0012617772,0.1743674524,-0.0000757819
557725.3600230140,0.0014623089,9.7947822368,0.0082434011,0.0008383686,0.1744325561,-0.0000866295
557725.3700230140,0.0015482488,9.7928042479,-0.0010618697,-0.0000953015,0.1745410624,-0.0000757819
557725.3800230140,0.0008836992,9.7908224382,-0.0088356993,0.0016634725,0.1744651080,-0.0000649343
557725.3900230140,0.0011816092,9.7947795975,0.0112961337,0.0000132648,0.1745519130,-0.0000649343
557725.4000230141,0.0007189219,9.7902125385,-0.0106648266,0.0006972324,0.1745627636,-0.0000323915
557725.4100230139,0.0012627037,9.7931068707,0.0015334732,0.0013594868,0.1745302118,-0.0000432391
557725.4200230140,0.0012865650,9.7941729621,0.0050416859,-0.0003015774,0.1745519130,-0.0000757819
557725.4300230140,0.0005469195,9.7905180086,-0.0129510648,0.0014680531,0.1745302118,-0.0000540867
557725.4400230140,0.0013292701,9.7947805005,0.0106848260,0.0004692432,0.1744976599,-0.0000757819
557725.4500230140,0.0015140732,9.7921962233,-0.0056374415,0.0001218311,0.1746061661,-0.0000757819
557725.4600230140,0.0016677980,9.7918917948,-0.0056388497,0.0016634725,0.1744759586,-0.0000540867
557725.4700230140,0.0007172883,9.7946256114,0.0103848116,-0.0001604413,0.1745736142,-0.0000649343
557725.4800230140,0.0000905046,9.7902110790,-0.0129473981,0.0010229313,0.1745410624,-0.0000649343
557725.4900230140,0.0009869354,9.7937139224,0.0055015434,0.0010989277,0.1744868093,-0.0000866295
557725.5000230140,0.0012718282,9.7929538577,0.0026009717,-0.0002690076,0.1745844649,-0.0000866295
557725.5100230140,0.0007189505,9.7905175229,-0.0105121774,0.0016417592,0.1744868093,-0.0000649343
557725.5200230140,0.0010279131,9.7953890104,0.0114501912,0.0002521106,0.1745736142,-0.0000757819
557725.5300230141,0.0008794774,9.7912801578,-0.0091405095,0.0004149601,0.1746604192,-0.0000757819
557725.5400230139,0.0006287028,9.7920382783,-0.0019696646,0.0015223363,0.1745627636,-0.0000757819
557725.5500230140,0.0010034569,9.7944754460,0.0079420483,-0.0002690076,0.1745410624,-0.0000866295
557725.5600230140,0.0011607147,9.7905203014,-0.0124986104,0.0012943471,0.1745302118,-0.0000866295
557725.5700230140,0.0010052990,9.7946278341,0.0082471375,0.0007623722,0.1745410624,-0.0000866295
557725.5800230140,0.0009222399,9.7924976651,-0.0031920709,-0.0000193051,0.1745844649,-0.0000757819
557725.5900230140,0.0010399470,9.7914328239,-0.0080741402,0.0016417592,0.1745410624,-0.0000649343
557725.6000230140,0.0017844664,9.7950874996,0.0105286495,-0.0000627316,0.1745410624,-0.0000757819
557725.6100230140,0.0004127195,9.7911263106,-0.0103568511,0.0008926518,0.1745519130,-0.0000757819
557725.6200230140,0.0009783772,9.7934094241,0.0042813258,0.0011966374,0.1745519130,-0.0000540867
557725.6300230140,0.0012572921,9.7938696442,0.0012288024,-0.0003015774,0.1745627636,-0.0000866295
557725.6400230150,0.0010209311,9.7900614704,-0.0111249632,0.0015657628,0.1745302118,-0.0000649343
557725.6500230150,0.0014897683,9.7952381510,0.0119038445,0.0002738239,0.1746387180,-0.0000649343
557725.6600230150,-0.0004902762,9.7914268489,-0.0086714918,0.0004258167,0.1746604192,-0.0000649343
557725.6700230150,0.0006220727,9.7928011212,-0.0024268451,0.0014789098,0.1746170167,-0.0000866295
557725.6800230150,0.0014458160,9.7943256976,0.0059555454,-0.0002581509,0.1746170167,-0.0000757819
557725.6900230150,0.0014760988,9.7900634852,-0.0114337889,0.0013052037,0.1745627636,-0.0000866295
557725.7000230150,0.0010113916,9.7946274869,0.0090096863,0.0006755192,0.1745736142,-0.0000866295
557725.7100230150,0.0001449432,9.7924953719,-0.0050158443,0.0000349781,0.1745844649,-0.0000757819
557725.7200230150,0.0007531834,9.7917355162,-0.0056313071,0.0016309026,0.1745736142,-0.0000649343
557725.7300230151,0.0020870706,9.7947839047,0.0100684432,-0.0000953015,0.1745302118,-0.0000757819
557725.7400230150,0.0013242161,9.7905203018,-0.0111272914,0.0009686482,0.1744651080,-0.0000974771
557725.7500230150,0.0009759689,9.7937145474,0.0041289555,0.0011423543,0.1745410624,-0.0000757819
557725.7600230150,0.0009491330,9.7934110906,0.0006210916,-0.0003015774,0.1745844649,-0.0000757819
557725.7700230150,0.0010264287,9.7902136502,-0.0103623446,0.0016091893,0.1746170167,-0.0000649343
557725.7800230150,0.0019449360,9.7952401657,0.0115950188,0.0002629673,0.1746495686,-0.0000757819
557725.7900230150,-0.0001816082,9.7908179224,-0.0085217986,0.0003823902,0.1746061661,-0.0000649343
557725.8000230150,0.0009277088,9.7923448604,-0.0025821016,0.0015766194,0.1746278674,-0.0000866295
557725.8100230150,0.0014598432,9.7944773913,0.0077857323,-0.0003015774,0.1746278674,-0.0000649343
557725.8200230150,0.0010032484,9.7899099851,-0.0134126793,0.0012183507,0.1745627636,-0.0000757819
557725.8300230150,0.0006947890,9.7950843726,0.0077923550,0.0008709385,0.1745953155,-0.0000974771
557725.8400230150,0.0000210862,9.7929505915,-0.0012016224,-0.0001604413,0.1745519130,-0.0000757819
557725.8500230151,0.0022565420,9.7911330501,-0.0086944686,0.0016960423,0.1746387180,-0.0000649343
557725.8600230149,0.0007258179,9.7946251253,0.0114523799,0.0000784046,0.1745519130,-0.0000757819
557725.8700230150,0.0002583712,9.7912782816,-0.0105080224,0.0005995228,0.1744976599,-0.0000649343
557725.8800230150,0.0020235075,9.7926526247,0.0010693909,0.0014463399,0.1745844649,-0.0000866295
557725.8900230150,0.0016008166,9.7946311684,0.0064119455,-0.0003558606,0.1746387180,-0.0001083246
557725.9000230150,0.0000868491,9.7902112873,-0.0134049273,0.0014463399,0.1745410624,-0.0000540867
557725.9100230150,0.0013116447,9.7952389840,0.0087024084,0.0005778095,0.1746278674,-0.0000757819
557725.9200230150,0.0007641787,9.7920398757,-0.0041060700,0.0000566913,0.1745193611,-0.0000757819
557725.9300230150,0.0012156335,9.7914321299,-0.0051777235,0.0017394689,0.1745519130,-0.0000649343
557725.9400230150,0.0010181364,9.7950845815,0.0100774639,-0.0001712979,0.1746387180,-0.0000757819
557725.9500230150,-0.0000760001,9.7906687288,-0.0144710176,0.0009795048,0.1745302118,-0.0000866295
557725.9600230150,0.0020449031,9.7934138705,0.0041199349,0.0011314976,0.1746387180,-0.0000757819
557725.9700230150,0.0028014851,9.7934173441,0.0033510424,-0.0003232907,0.1746929711,-0.0000757819
557725.9800230151,0.0004066270,9.7911266578,-0.0111193999,0.0016417592,0.1745410624,-0.0000866295
557725.9900230150,-0.0006555259,9.7946199839,0.0103962303,0.0002955372,0.1746387180,-0.0000540867
557726.0000230150,0.0013474538,9.7914339356,-0.0077716581,0.0003281071,0.1746278674,-0.0000649343
557726.0100230150,0.0027544722,9.7923525720,-0.0030548557,0.0016200459,0.1748231786,-0.0000866295
557726.0200230150,0.0008527641,9.7946272088,0.0082484063,-0.0003015774,0.1745844649,-0.0000974771
557726.0300230150,-0.0015855086,9.7906615733,-0.0124757034,0.0011966374,0.1745953155,-0.0000866295
557726.0400230150,0.0009943325,9.7946284590,0.0068745497,0.0008817951,0.1745193611,-0.0000649343
557726.0500230150,0.0032267850,9.7932685678,-0.0007705970,-0.0001495846,0.1746712699,-0.0000974771
557726.0600230150,0.0024054214,9.7911338837,-0.0091532666,0.0016960423,0.1746061661,-0.0000649343
557726.0700230150,-0.0009550694,9.7950758974,0.0113140356,0.0000241214,0.1744976599,-0.0000866295
557726.0800230150,0.0002553106,9.7911259630,-0.0109656214,0.0006646626,0.1746821205,-0.0000649343
557726.0900230150,0.0026385498,9.7929598324,0.0018270043,0.0013594868,0.1746170167,-0.0000757819
557726.1000230151,0.0017405428,9.7944800306,0.0047329997,-0.0003232907,0.1746604192,-0.0000974771
557726.1100230149,-0.0003610363,9.7899038715,-0.0123336923,0.0014571965,0.1746604192,-0.0000757819
557726.1200230150,-0.0002027952,9.7946221375,0.0097823850,0.0005235264,0.1746061661,-0.0000757819
557726.1300230150,0.0024298776,9.7920474481,-0.0056451237,0.0001218311,0.1746170167,-0.0000649343
557726.1400230150,0.0022895277,9.7920461284,-0.0041187573,0.0016743291,0.1745519130,-0.0000866295
557726.1500230150,0.0013134295,9.7947814032,0.0087021991,-0.0001712979,0.1746278674,-0.0000974771
557726.1600230150,0.0003997962,9.7897546099,-0.0126451253,0.0010229313,0.1745736142,-0.0000974771
557726.1700230150,0.0015983222,9.7940213385,0.0058016274,0.0010120747,0.1746278674,-0.0000757819
557726.1800230150,0.0024671424,9.7931127756,-0.0004593036,-0.0001821545,0.1746278674,-0.0000757819
557726.1900230150,0.0008697007,9.7909757289,-0.0105132368,0.0016960423,0.1745302118,-0.0000649343
557726.2000230150,0.0005672478,9.7952348160,0.0109963984,0.0001001178,0.1746387180,-0.0000757819
557726.2100230150,0.0010301416,9.7908234107,-0.0095995168,0.0006103794,0.1745519130,-0.0000649343
557726.2200230150,0.0017184663,9.7929563585,0.0012245777,0.0014354832,0.1745736142,-0.0000866295
557726.2300230151,0.0014415656,9.7944784329,0.0054980859,-0.0003232907,0.1747472242,-0.0001191722
557726.2400230150,0.0002436058,9.7897541929,-0.0131013858,0.0014137700,0.1745627636,-0.0000540867
557726.2500230150,0.0020864470,9.7946314472,0.0099158637,0.0005560963,0.1745953155,-0.0000649343
557726.2600230150,0.0013602911,9.7918906831,-0.0059413318,0.0001218311,0.1746387180,-0.0000649343
557726.2700230150,0.0018269916,9.7914345616,-0.0050302887,0.0016960423,0.1745410624,-0.0000649343
557726.2800230150,0.0002560854,9.7952339126,0.0102363871,-0.0001712979,0.1746387180,-0.0000974771
557726.2900230150,0.0013131922,9.7899109579,-0.0128051777,0.0009795048,0.1746278674,-0.0000757819
557726.3000230150,0.0023566890,9.7935672313,0.0050325257,0.0010989277,0.1746495686,-0.0000974771
557726.3100230150,0.0011077891,9.7937163531,0.0015350209,-0.0002798642,0.1746061661,-0.0000866295
557726.3200230150,0.0005608893,9.7900597335,-0.0114261765,0.0016634725,0.1746495686,-0.0000649343
557726.3300230150,0.0007136328,9.7946258197,0.0099272824,0.0002738239,0.1745736142,-0.0000866295
557726.3400230150,0.0016421806,9.7915882686,-0.0089942039,0.0004041035,0.1745736142,-0.0000757819
557726.3500230151,0.0029301300,9.7920468936,-0.0003110883,0.0015440495,0.1746278674,-0.0000974771
557726.3600230149,0.0009961746,9.7947808470,0.0071796390,-0.0003015774,0.1746604192,-0.0001191722
557726.3700230150,-0.0009918332,9.7905125197,-0.0146159847,0.0012726338,0.1746278674,-0.0000757819
557726.3800230150,0.0032951361,9.7944846169,0.0083805465,0.0007623722,0.1747472242,-0.0000649343
557726.3900230150,0.0030638785,9.7931160405,-0.0021419859,-0.0000953015,0.1746170167,-0.0000866295
557726.4000230150,0.0004334628,9.7914301145,-0.0076115360,0.0017286122,0.1745953155,-0.0000866295
557726.4100230150,0.0001053639,9.7950806910,0.0103900958,-0.0000084485,0.1747038217,-0.0000974771
557726.4200230150,0.0002510028,9.7906687295,-0.0117283795,0.0007732289,0.1746278674,-0.0000757819
557726.4300230150,0.0032457149,9.7937249681,0.0018222781,0.0012292073,0.1745844649,-0.0000974771
557726.4400230150,0.0021938971,9.7946346417,0.0042717339,-0.0003015774,0.1746712699,-0.0000866295
557726.4500230150,-0.0006605224,9.7909697539,-0.0111105885,0.0015549062,0.1746387180,-0.0000974771
557726.4600230150,-0.0002045799,9.7950797182,0.0097825943,0.0003498203,0.1746170167,-0.0000649343
557726.4700230150,0.0025634539,9.7912866887,-0.0083919168,0.0003606769,0.1747146723,-0.0000649343
557726.4800230151,0.0027727211,9.7920465461,-0.0009198586,0.0015766194,0.1746170167,-0.0000974771
557726.4900230150,0.0009992065,9.7946281812,0.0074845888,-0.0002798642,0.1746170167,-0.0000974771
557726.5000230150,-0.0003829407,9.7902101058,-0.0149262187,0.0013052037,0.1746278674,-0.0000432391
557726.5100230150,0.0017624760,9.7944787807,0.0074781753,0.0007623722,0.1746495686,-0.0000757819
557726.5200230150,0.0029240949,9.7926572096,-0.0007683386,-0.0001061581,0.1746170167,-0.0000866295
557726.5300230150,0.0014944624,9.7909773968,-0.0086881947,0.0017611821,0.1746061661,-0.0000866295
557726.5400230150,0.0001089908,9.7947754983,0.0106949758,0.0000024082,0.1747038217,-0.0000974771
557726.5500230150,0.0010148959,9.7906717864,-0.0115822134,0.0005995228,0.1746604192,-0.0000757819
557726.5600230150,0.0027904611,9.7928080002,0.0016731560,0.0014463399,0.1746495686,-0.0000974771
557726.5700230150,0.0020461789,9.7940237698,0.0045777432,-0.0003341473,0.1746604192,-0.0000974771
557726.5800230150,0.0002382228,9.7908219508,-0.0132534073,0.0014137700,0.1746387180,-0.0000866295
557726.5900230150,0.0004097528,9.7943195153,0.0099296803,0.0005778095,0.1745519130,-0.0000866295
557726.6000230151,0.0018246406,9.7923496536,-0.0048773604,0.0001001178,0.1746061661,-0.0000757819
557726.6100230149,0.0030472996,9.7917445482,-0.0048877893,0.0016743291,0.1746278674,-0.0001083246
557726.6200230150,0.0003988723,9.7952350934,0.0090150403,-0.0001821545,0.1746278674,-0.0000866295
557726.6300230150,-0.0002182207,9.7902100367,-0.0134023899,0.0010229313,0.1747038217,-0.0000866295
557726.6400230150,0.0017593580,9.7937164933,0.0067152777,0.0010446446,0.1746712699,-0.0000649343
557726.6500230150,0.0029314919,9.7935717461,0.0006046678,-0.0002255810,0.1747255230,-0.0000866295
557726.6600230150,0.0017842579,9.7905220387,-0.0108260781,0.0016960423,0.1747255230,-0.0000866295
557726.6700230150,0.0010223581,9.7946268619,0.0103822742,0.0001435444,0.1746712699,-0.0000866295
557726.6800230150,0.0014944911,9.7912823812,-0.0085355454,0.0005560963,0.1750184898,-0.0000866295
557726.6900230150,0.0021668893,9.7925012785,-0.0001520256,0.0014137700,0.1746712699,-0.0000866295
557726.7000230150,0.0017502336,9.7938695063,0.0056477792,-0.0003232907,0.1747038217,-0.0000757819
557726.7100230160,0.0013070997,9.7899113051,-0.0135677265,0.0014571965,0.1745736142,-0.0000974771
557726.7200230160,0.0014775545,9.7949338610,0.0102260977,0.0005343830,0.1745302118,-0.0000866295
557726.7300230160,0.0010607189,9.7920416123,-0.0051761758,0.0001109745,0.1746278674,-0.0000866295
557726.7400230160,0.0018123982,9.7917403792,-0.0067077565,0.0017503255,0.1746061661,-0.0000974771
557726.7500230160,0.0010096068,9.7950850676,0.0090098956,-0.0001821545,0.1745627636,-0.0000866295
557726.7600230160,0.0013120311,9.7905209961,-0.0126523889,0.0008817951,0.1746495686,-0.0000974771
557726.7700230160,0.0017544553,9.7934117867,0.0059525894,0.0012400639,0.1746604192,-0.0000866295
557726.7800230160,0.0009692241,9.7932574527,0.0030611780,-0.0003232907,0.1746061661,-0.0000757819
557726.7900230160,0.0010026535,9.7900625120,-0.0134126095,0.0015874761,0.1746929711,-0.0000540867
557726.8000230161,0.0027069583,9.7947858503,0.0112834463,0.0004041035,0.1747146723,-0.0001083246
557726.8100230159,0.0012028822,9.7918903356,-0.0065501021,0.0002521106,0.1746495686,-0.0000866295
557726.8200230160,0.0013803821,9.7917370452,-0.0035012454,0.0016634725,0.1746604192,-0.0000866295
557726.8300230160,0.0014653408,9.7946295710,0.0085483508,-0.0002472943,0.1747255230,-0.0000974771
557726.8400230160,0.0009989979,9.7900627203,-0.0138701388,0.0010663578,0.1746604192,-0.0000757819
557726.8500230160,0.0023682505,9.7934140795,0.0064050438,0.0010446446,0.1744976599,-0.0000866295
557726.8600230160,0.0012511996,9.7938699914,0.0004662536,-0.0002147244,0.1746604192,-0.0000974771
557726.8700230160,0.0011680257,9.7905198848,-0.0115835519,0.0016634725,0.1745519130,-0.0000866295
557726.8800230160,0.0016282760,9.7950870827,0.0100723890,0.0001978275,0.1745736142,-0.0000866295
557726.8900230160,0.0016452126,9.7914356028,-0.0086892542,0.0004041035,0.1746170167,-0.0000757819
557726.9000230160,0.0017019735,9.7924998193,-0.0010632780,0.0015440495,0.1745844649,-0.0000974771
557726.9100230160,0.0016050097,9.7938684644,0.0065641065,-0.0003015774,0.1746061661,-0.0000866295
557726.9200230160,0.0008452445,9.7900621645,-0.0140213798,0.0012943471,0.1746170167,-0.0000866295
557726.9300230159,0.0020681981,9.7949374731,0.0077808666,0.0007623722,0.1746278674,-0.0000649343
557726.9400230160,0.0021449275,9.7921975440,-0.0030498505,0.0000024082,0.1746929711,-0.0000866295
557726.9500230160,0.0008928810,9.7912793940,-0.0074629022,0.0016634725,0.1746495686,-0.0000866295
557726.9600230160,0.0007020713,9.7947789715,0.0085547643,-0.0000627316,0.1746604192,-0.0000866295
557726.9700230160,0.0019392298,9.7905225251,-0.0105223273,0.0008817951,0.1745953155,-0.0000757819
557726.9800230160,0.0028075776,9.7934169969,0.0041135912,0.0011532109,0.1746821205,-0.0000866295
557726.9900230160,0.0018667508,9.7931097190,0.0007658494,-0.0001930112,0.1746387180,-0.0000866295
557727.0000230160,-0.0003536679,9.7905134237,-0.0111133352,0.0015874761,0.1745736142,-0.0000974771
557727.0100230160,0.0022572308,9.7943260465,0.0120495921,0.0003281071,0.1749425354,-0.0000866295
557727.0200230160,0.0036336640,9.7915959111,-0.0079431292,0.0003498203,0.1745844649,-0.0000866295
557727.0300230160,0.0015304800,9.7917378093,-0.0038075337,0.0016309026,0.1746495686,-0.0001083246
557727.0400230160,0.0002383741,9.7947774429,0.0077960217,-0.0003341473,0.1746278674,-0.0000866295
557727.0500230161,0.0011527514,9.7900632762,-0.0137188978,0.0012292073,0.1746278674,-0.0000757819
557727.0600230159,0.0025214950,9.7944821154,0.0070143023,0.0009360783,0.1745844649,-0.0000866295
557727.0700230160,0.0024537675,9.7934185238,-0.0019842617,-0.0001712979,0.1746604192,-0.0000974771
557727.0800230160,0.0008757645,9.7906703973,-0.0099033373,0.0017177556,0.1745953155,-0.0000974771
557727.0900230160,0.0005702797,9.7950821502,0.0113013482,0.0000241214,0.1745736142,-0.0000974771
557727.1000230160,0.0017794985,9.7917422540,-0.0108255200,0.0006538059,0.1746387180,-0.0000866295
557727.1100230160,0.0033915337,9.7935734831,0.0009058811,0.0013594868,0.1745953155,-0.0000866295
557727.1200230160,0.0017338267,9.7943279203,0.0038178714,-0.0003015774,0.1745844649,-0.0000866295
557727.1300230160,0.0008495523,9.7905193981,-0.0132586218,0.0014789098,0.1746604192,-0.0000866295
557727.1400230160,0.0010278558,9.7947790416,0.0111448927,0.0005560963,0.1746604192,-0.0000757819
557727.1500230160,0.0021265925,9.7915886168,-0.0056427955,0.0001109745,0.1746170167,-0.0000974771
557727.1600230160,0.0019595215,9.7925037780,-0.0070136960,0.0016309026,0.1745953155,-0.0000974771
557727.1700230160,0.0013225539,9.7946283902,0.0097696976,-0.0001604413,0.1746604192,-0.0000974771
557727.1800230159,0.0005529834,9.7902126770,-0.0123411652,0.0009686482,0.1745302118,-0.0000866295
557727.1900230160,0.0031211770,9.7934177614,0.0051786220,0.0011314976,0.1746495686,-0.0000974771
557727.2000230160,0.0023244129,9.7937215636,0.0010673417,-0.0002147244,0.1746929711,-0.0000974771
557727.2100230160,0.0007025437,9.7909759369,-0.0123420852,0.0016417592,0.1746387180,-0.0001083246
557727.2200230160,0.0010247952,9.7946267230,0.0106872937,0.0002086841,0.1746604192,-0.0000974771
557727.2300230160,0.0030198115,9.7909836495,-0.0087008821,0.0004258167,0.1747472242,-0.0000866295
557727.2400230160,0.0026195913,9.7921984477,-0.0009185201,0.0014789098,0.1745736142,-0.0000974771
557727.2500230160,0.0009851793,9.7944764876,0.0056544019,-0.0002472943,0.1745736142,-0.0000866295
557727.2600230160,0.0002448529,9.7900591079,-0.0127962268,0.0013160603,0.1746712699,-0.0000866295
557727.2700230160,0.0025373069,9.7941762283,0.0088442799,0.0007732289,0.1745844649,-0.0000866295
557727.2800230160,0.0029003483,9.7928110558,-0.0036659542,-0.0000518750,0.1746061661,-0.0000974771
557727.2900230160,0.0010380762,9.7909754515,-0.0085318787,0.0017503255,0.1745627636,-0.0000866295
557727.3000230161,0.0008638454,9.7958465214,0.0102315912,-0.0000627316,0.1747363736,-0.0000866295
557727.3100230159,0.0016250642,9.7909792719,-0.0114346391,0.0007406590,0.1746170167,-0.0000866295
557727.3200230160,0.0027984245,9.7932650255,0.0028934434,0.0013052037,0.1745736142,-0.0000866295
557727.3300230160,0.0017337694,9.7937179515,0.0035125728,-0.0002690076,0.1746387180,-0.0001191722
557727.3400230160,0.0006964512,9.7909762841,-0.0131046340,0.0015223363,0.1746712699,-0.0000974771
557727.3500230160,0.0020858521,9.7947839741,0.0099159335,0.0004583866,0.1746604192,-0.0000757819
557727.3600230160,0.0027306683,9.7918964495,-0.0062577699,0.0001978275,0.1746495686,-0.0000866295
557727.3700230160,0.0024469367,9.7920464760,-0.0035099871,0.0015766194,0.1746604192,-0.0000974771
557727.3800230160,0.0002462514,9.7943195150,0.0085583612,-0.0001930112,0.1747038217,-0.0000866295
557727.3900230160,0.0005505464,9.7902128159,-0.0126461848,0.0011206410,0.1746170167,-0.0000757819
557727.4000230160,0.0034379230,9.7944857976,0.0071591997,0.0009795048,0.1746170167,-0.0000866295
557727.4100230160,0.0024591791,9.7926557504,-0.0016795909,-0.0001061581,0.1747255230,-0.0001191722
557727.4200230160,0.0007232010,9.7903647877,-0.0100547179,0.0016634725,0.1745302118,-0.0000974771
557727.4300230159,0.0019345930,9.7953932482,0.0103750105,0.0000566913,0.1745410624,-0.0000866295
557727.4400230160,0.0017915976,9.7908266065,-0.0097583702,0.0005886662,0.1746604192,-0.0000649343
557727.4500230160,0.0020137881,9.7929581646,0.0000019621,0.0014680531,0.1746495686,-0.0000866295
557727.4600230160,0.0017374822,9.7943277120,0.0042754006,-0.0003341473,0.1747255230,-0.0000866295
557727.4700230160,0.0011570018,9.7899105409,-0.0132614383,0.0013920567,0.1746821205,-0.0000866295
557727.4800230160,0.0026923075,9.7944816991,0.0093006800,0.0006429493,0.1747363736,-0.0000866295
557727.4900230160,0.0016678840,9.7928067480,-0.0051809019,0.0000892612,0.1747146723,-0.0000974771
557727.5000230160,0.0019679651,9.7915883387,-0.0064040755,0.0016417592,0.1745410624,-0.0000974771
557727.5100230160,0.0013164614,9.7946287374,0.0090071489,-0.0001930112,0.1746387180,-0.0000866295
557727.5200230160,0.0016182907,9.7902171929,-0.0126550659,0.0010446446,0.1746495686,-0.0000757819
557727.5300230160,0.0031284880,9.7934173447,0.0060936806,0.0011097844,0.1746170167,-0.0000974771
557727.5400230160,0.0014018637,9.7934132442,0.0000072463,-0.0002255810,0.1746278674,-0.0000974771
557727.5500230161,0.0013236212,9.7906728287,-0.0111272216,0.0016417592,0.1746495686,-0.0000866295
557727.5600230159,0.0016440879,9.7947811956,0.0119023665,0.0001869709,0.1746278674,-0.0000757819
557727.5700230160,0.0022583841,9.7912854381,-0.0083893794,0.0004149601,0.1746061661,-0.0000974771
557727.5800230160,0.0026080298,9.7923515996,-0.0022910382,0.0015549062,0.1746170167,-0.0000974771
557727.5900230160,0.0017526992,9.7941743518,0.0061054480,-0.0003015774,0.1745844649,-0.0000974771
557727.6000230160,0.0010093696,9.7902146223,-0.0124974812,0.0013486302,0.1746387180,-0.0000974771
557727.6100230160,0.0023817401,9.7943282688,0.0085405989,0.0007189457,0.1746821205,-0.0000974771
557727.6200230160,0.0022901513,9.7921985859,-0.0039661778,0.0000024082,0.1747146723,-0.0000974771
557727.6300230160,0.0018111510,9.7914354643,-0.0070129156,0.0016960423,0.1746387180,-0.0000649343
557727.6400230160,0.0014788304,9.7955437604,0.0106839060,-0.0001278714,0.1747146723,-0.0000866295
557727.6500230160,0.0014645373,9.7902166370,-0.0128063069,0.0008926518,0.1747472242,-0.0000974771
557727.6600230160,0.0023451275,9.7937203832,0.0036600076,0.0012074940,0.1747363736,-0.0000866295
557727.6700230160,0.0020236222,9.7938725622,0.0016799880,-0.0002472943,0.1746387180,-0.0000974771
557727.6800230159,0.0019410145,9.7900649444,-0.0105225365,0.0016200459,0.1745627636,-0.0001083246
557727.6900230160,0.0016239969,9.7949348335,0.0094622802,0.0002846805,0.1745627636,-0.0000866295
557727.7000230160,0.0020924456,9.7912855767,-0.0100657180,0.0003281071,0.1746821205,-0.0000974771
557727.7100230160,0.0024536528,9.7921985862,-0.0025948588,0.0015874761,0.1746170167,-0.0000866295
557727.7200230160,0.0019284431,9.7947836266,0.0093071632,-0.0003015774,0.1747255230,-0.0000974771
557727.7300230160,0.0016030450,9.7900655686,-0.0146377625,0.0012943471,0.1746170167,-0.0001083246
557727.7400230160,0.0017600963,9.7950888884,0.0074784543,0.0008383686,0.1746495686,-0.0001083246
557727.7500230160,0.0027703414,9.7926566537,-0.0009195796,-0.0001061581,0.1746495686,-0.0001191722
557727.7600230160,0.0018024495,9.7896060439,-0.0089963795,0.0017286122,0.1745410624,-0.0000866295
557727.7700230160,0.0013219590,9.7947809171,0.0097697674,0.0000241214,0.1746604192,-0.0000974771
557727.7800230170,0.0016237597,9.7900643882,-0.0120450966,0.0006755192,0.1747906267,-0.0000866295
557727.7900230170,0.0014219548,9.7932596063,0.0024473327,0.0013594868,0.1747146723,-0.0000974771
557727.8000230170,0.0029675096,9.7943321587,0.0054853288,-0.0003124341,0.1747146723,-0.0001191722
557727.8100230170,0.0020710214,9.7902193464,-0.0132689112,0.0015549062,0.1745844649,-0.0000974771
557727.8200230170,0.0008545776,9.7944746124,0.0084008463,0.0005235264,0.1744976599,-0.0001083246
557727.8300230170,0.0013518189,9.7925011380,-0.0067036015,0.0000892612,0.1745627636,-0.0000866295
557727.8400230170,0.0025836310,9.7920480039,-0.0054938826,0.0016634725,0.1745627636,-0.0000866295
557727.8500230170,0.0039229011,9.7940286345,0.0103578891,-0.0001604413,0.1746604192,-0.0001191722
557727.8600230170,0.0014523522,9.7902173314,-0.0143314045,0.0009795048,0.1745953155,-0.0000974771
557727.8700230171,0.0015916348,9.7941742126,0.0050391484,0.0011532109,0.1746170167,-0.0000974771
557727.8800230169,0.0009577486,9.7943255577,0.0021466077,-0.0003341473,0.1747255230,-0.0000974771
557727.8900230170,0.0026945646,9.7902210837,-0.0115963788,0.0016417592,0.1745736142,-0.0000866295
557727.9000230170,0.0027033314,9.7950910430,0.0109785663,0.0003389637,0.1746170167,-0.0000974771
557727.9100230170,0.0011761037,9.7921968476,-0.0097526675,0.0002629673,0.1747472242,-0.0000866295
557727.9200230170,0.0007696476,9.7918870710,-0.0034961007,0.0016526158,0.1747472242,-0.0000866295
557727.9300230170,0.0034659486,9.7944842006,0.0106669241,-0.0002581509,0.1747363736,-0.0000974771
557727.9400230170,0.0026781578,9.7906794977,-0.0134262866,0.0011966374,0.1746495686,-0.0001083246
557727.9500230170,0.0012883784,9.7940203657,0.0051941259,0.0009686482,0.1745953155,-0.0000757819
557727.9600230170,0.0010876694,9.7935650066,-0.0010577147,-0.0002255810,0.1745519130,-0.0000974771
557727.9700230170,0.0027092154,9.7905252349,-0.0096136124,0.0016960423,0.1745302118,-0.0000866295
557727.9800230170,0.0031658102,9.7950926410,0.0115847992,0.0001109745,0.1745627636,-0.0000974771
557727.9900230170,0.0016287197,9.7909790636,-0.0109771098,0.0005886662,0.1746387180,-0.0000974771
557728.0000230171,0.0015610001,9.7923460422,0.0003105088,0.0014571965,0.1745627636,-0.0000974771
557728.0100230169,0.0029669146,9.7944846856,0.0054853986,-0.0003232907,0.1749750873,-0.0001191722
557728.0200230170,0.0019062728,9.7899144311,-0.0149453893,0.0014571965,0.1745302118,-0.0001083246
557728.0300230170,0.0020730721,9.7949371954,0.0083909057,0.0006103794,0.1746278674,-0.0000866295
557728.0400230170,0.0019820783,9.7926549855,-0.0041159408,0.0000566913,0.1747363736,-0.0000974771
557728.0500230170,0.0028934888,9.7911340235,-0.0053443289,0.0017068990,0.1747363736,-0.0000974771
557728.0600230170,0.0025367693,9.7949387240,0.0091496482,-0.0001278714,0.1747363736,-0.0001191722
557728.0700230170,0.0022108050,9.7906781774,-0.0146425585,0.0009686482,0.1746604192,-0.0001083246
557728.0800230170,0.0020431183,9.7938714512,0.0041201441,0.0011966374,0.1746712699,-0.0001083246
557728.0900230170,0.0017245589,9.7929560113,0.0019871265,-0.0003015774,0.1746061661,-0.0000866295
557728.1000230170,0.0026933461,9.7902211532,-0.0117488885,0.0016417592,0.1746278674,-0.0000649343
557728.1100230170,0.0026911750,9.7953967217,0.0096061180,0.0002521106,0.1746495686,-0.0000974771
557728.1200230171,0.0011894213,9.7912811306,-0.0085330080,0.0003715336,0.1746604192,-0.0001083246
557728.1300230169,0.0009344249,9.7924969707,-0.0016669733,0.0015874761,0.1746604192,-0.0001083246
557728.1400230170,0.0034452627,9.7947903654,0.0082269075,-0.0002690076,0.1747038217,-0.0001191722
557728.1500230170,0.0025127569,9.7899171406,-0.0154079935,0.0012943471,0.1745844649,-0.0001083246
557728.1600230170,0.0013024342,9.7944770438,0.0071769620,0.0008383686,0.1745953155,-0.0000974771
557728.1700230170,0.0006347954,9.7920379311,-0.0012071158,-0.0001387280,0.1746278674,-0.0000866295
557728.1800230170,0.0033224730,9.7912900234,-0.0088557898,0.0017394689,0.1746061661,-0.0000866295
557728.1900230170,0.0045288476,9.7947938396,0.0102006532,0.0000566913,0.1747580748,-0.0001083246
557728.2000230170,0.0014615914,9.7912842560,-0.0126533089,0.0006755192,0.1747146723,-0.0000974771
557728.2100230170,0.0011058610,9.7926490119,0.0007719838,0.0014029134,0.1746387180,-0.0000974771
557728.2200230170,0.0025177535,9.7935673705,0.0060988253,-0.0003124341,0.1746278674,-0.0001191722
557728.2300230170,0.0029856359,9.7903756250,-0.0132764538,0.0014680531,0.1745736142,-0.0001083246
557728.2400230170,0.0023774896,9.7944810041,0.0080831394,0.0005452396,0.1746278674,-0.0000866295
557728.2500230171,0.0013639466,9.7918904748,-0.0054838025,0.0000892612,0.1745736142,-0.0000974771
557728.2600230169,0.0024378122,9.7921994889,-0.0045774856,0.0016960423,0.1746712699,-0.0000866295
557728.2700230170,0.0033048842,9.7944840613,0.0096006245,-0.0000953015,0.1747363736,-0.0000974771
557728.2800230170,0.0025213438,9.7905266233,-0.0140351267,0.0009360783,0.1745844649,-0.0001083246
557728.2900230170,0.0020479637,9.7935661891,0.0045775339,0.0011749241,0.1745627636,-0.0000974771
557728.3000230170,0.0012755411,9.7935636182,0.0033637995,-0.0003124341,0.1746387180,-0.0001191722
557728.3100230170,0.0017708830,9.7908277869,-0.0123510361,0.0016634725,0.1746929711,-0.0000866295
557728.3200230170,0.0039205501,9.7949437266,0.0105108174,0.0003281071,0.1748014773,-0.0000974771
557728.3300230170,0.0027141754,9.7914399103,-0.0085456256,0.0003172504,0.1747038217,-0.0001083246
557728.3400230170,0.0019966430,9.7920441835,-0.0025911223,0.0016309026,0.1745953155,-0.0001083246
557728.3500230170,0.0014634413,9.7938672142,0.0079379630,-0.0002798642,0.1746278674,-0.0000974771
557728.3600230170,0.0019105519,9.7900666803,-0.0143352805,0.0012074940,0.1746387180,-0.0000974771
557728.3700230171,0.0031322582,9.7946370740,0.0071618069,0.0008817951,0.1746170167,-0.0000866295
557728.3800230169,0.0027654961,9.7929619159,-0.0013769694,-0.0001387280,0.1746712699,-0.0001191722
557728.3900230170,0.0019507913,9.7903693732,-0.0091498092,0.0017394689,0.1746604192,-0.0001083246
557728.4000230170,0.0020871279,9.7953938734,0.0103737418,0.0000349781,0.1745627636,-0.0001191722
557728.4100230170,0.0014736904,9.7903686084,-0.0115861591,0.0007080891,0.1745410624,-0.0001083246
557728.4200230170,0.0026366791,9.7925024600,0.0013692657,0.0013594868,0.1745410624,-0.0000866295
557728.4300230170,0.0034123056,9.7941822714,0.0038038455,-0.0003124341,0.1746495686,-0.0000974771
557728.4400230170,0.0022211480,9.7905250950,-0.0134225502,0.0014897664,0.1746604192,-0.0001083246
557728.4500230170,0.0014714620,9.7949342082,0.0094635489,0.0005235264,0.1746712699,-0.0000757819
557728.4600230170,0.0024311248,9.7923523631,-0.0053399646,0.0001544010,0.1746604192,-0.0000974771
557728.4700230170,0.0029044554,9.7911333986,-0.0039717411,0.0017286122,0.1745953155,-0.0001083246
557728.4800230170,0.0017734712,9.7947831402,0.0090034124,-0.0002147244,0.1745736142,-0.0000974771
557728.4900230170,0.0020643053,9.7900672361,-0.0141840395,0.0010663578,0.1747472242,-0.0000866295
557728.5000230171,0.0026715355,9.7938729108,0.0064027156,0.0010229313,0.1747472242,-0.0000866295
557728.5100230169,0.0033939707,9.7935733442,0.0012109006,-0.0002364377,0.1747038217,-0.0000974771
557728.5200230170,0.0031582906,9.7905275968,-0.0106849869,0.0017177556,0.1746061661,-0.0001083246
557728.5300230170,0.0011615468,9.7952382198,0.0090086966,0.0001978275,0.1745736142,-0.0001083246
557728.5400230170,0.0011796732,9.7912816861,-0.0097530860,0.0005018131,0.1746170167,-0.0001083246
557728.5500230170,0.0024774280,9.7923497244,0.0004554062,0.0014789098,0.1746712699,-0.0001083246
557728.5600230170,0.0032774534,9.7943331315,0.0060928304,-0.0003015774,0.1747038217,-0.0000974771
557728.5700230170,0.0028123864,9.7903761802,-0.0158678510,0.0013920567,0.1745736142,-0.0001083246
557728.5800230170,0.0016166285,9.7943252813,0.0082419231,0.0006320927,0.1745953155,-0.0001083246
557728.5900230170,0.0013767553,9.7920422379,-0.0038061254,0.0000784046,0.1745736142,-0.0000974771
557728.6000230170,0.0021198764,9.7914365065,-0.0065579238,0.0017286122,0.1745844649,-0.0000974771
557728.6100230170,0.0040560546,9.7952503084,0.0085270613,-0.0001495846,0.1747363736,-0.0000974771
557728.6200230171,0.0034456490,9.7900723776,-0.0131278898,0.0009795048,0.1747797761,-0.0001083246
557728.6300230169,0.0000620639,9.7946256795,0.0047470255,0.0011314976,0.1746278674,-0.0000866295
557728.6400230170,0.0024708553,9.7937225361,0.0003035242,-0.0002472943,0.1746387180,-0.0001191722
557728.6500230170,0.0034609234,9.7905289862,-0.0109925439,0.0016634725,0.1745302118,-0.0001083246
557728.6600230170,0.0034641639,9.7949417813,0.0106671334,0.0002303974,0.1745736142,-0.0001083246
557728.6700230170,0.0018031304,9.7903684702,-0.0085385014,0.0004475300,0.1746170167,-0.0000974771
557728.6800230170,0.0012401183,9.7926506787,-0.0015169313,0.0015766194,0.1745627636,-0.0000974771
557728.6900230170,0.0032780770,9.7944855890,0.0062454099,-0.0003341473,0.1746170167,-0.0000757819
557728.7000230170,0.0029734509,9.7903763194,-0.0148015514,0.0012943471,0.1746278674,-0.0001083246
557728.7100230170,0.0020833290,9.7938691598,0.0091529661,0.0007949421,0.1746387180,-0.0000974771
557728.7200230170,0.0016959383,9.7931101353,-0.0015205282,-0.0000518750,0.1746604192,-0.0000974771
557728.7300230170,0.0024151408,9.7908283438,-0.0080858378,0.0017611821,0.1745844649,-0.0000974771
557728.7400230170,0.0040645554,9.7949448379,0.0094419804,-0.0000084485,0.1746929711,-0.0001191722
557728.7500230171,0.0023749301,9.7908306352,-0.0131186599,0.0007623722,0.1747906267,-0.0001083246
557728.7600230169,0.0014226070,9.7937170481,0.0027525615,0.0013269169,0.1746604192,-0.0000974771
557728.7700230170,0.0022016884,9.7932617605,0.0045761256,-0.0003341473,0.1746712699,-0.0001191722
557728.7800230170,0.0028252524,9.7911379121,-0.0138848753,0.0015331929,0.1746278674,-0.0000866295
557728.7900230170,0.0039180844,9.7946388811,0.0100531486,0.0005343830,0.1746495686,-0.0001191722
557728.8000230170,0.0015073571,9.7920441131,-0.0065525698,0.0001761142,0.1745736142,-0.0001300198
557728.8100230170,0.0019777705,9.7921977520,-0.0048786989,0.0017177556,0.1746061661,-0.0000974771
557728.8200230170,0.0026923075,9.7944816991,0.0093006800,-0.0002581509,0.1746170167,-0.0000974771
557728.8300230170,0.0031278566,9.7908343171,-0.0143450816,0.0010555012,0.1746278674,-0.0000866295
557728.8400230170,0.0031248325,9.7934175530,0.0056361513,0.0010880711,0.1745953155,-0.0001083246
557728.8500230170,0.0012536079,9.7935648681,0.0006186239,-0.0002690076,0.1746495686,-0.0001300198
557728.8600230180,0.0019276970,9.7909806614,-0.0117421961,0.0017177556,0.1746278674,-0.0000866295
557728.8700230180,0.0036264182,9.7946368667,0.0117332934,0.0002521106,0.1746821205,-0.0000757819
557728.8800230180,0.0028484901,9.7920515459,-0.0105292421,0.0004041035,0.1747580748,-0.0001083246
557728.8900230180,0.0023096474,9.7921974749,-0.0015260217,0.0015440495,0.1747255230,-0.0001083246
557728.9000230180,0.0019162294,9.7944793365,0.0076294163,-0.0002581509,0.1746712699,-0.0000974771
557728.9100230180,0.0023785282,9.7902204581,-0.0129664291,0.0012726338,0.1746821205,-0.0000866295
557728.9200230180,0.0043531037,9.7941845649,0.0069989380,0.0008492253,0.1746604192,-0.0001083246
557728.9300230180,0.0029089065,9.7931155541,-0.0024457367,-0.0000735882,0.1746278674,-0.0001300198
557728.9400230180,0.0010277619,9.7914335183,-0.0095992378,0.0017286122,0.1745953155,-0.0001191722
557728.9500230181,0.0022414476,9.7949369180,0.0103722638,-0.0000084485,0.1746278674,-0.0000866295
557728.9600230179,0.0042218132,9.7909896933,-0.0109986783,0.0006972324,0.1745953155,-0.0000974771
557728.9700230180,0.0043237735,9.7932712782,0.0028807560,0.0013812001,0.1745627636,-0.0001083246
557728.9800230180,0.0012657357,9.7929542049,0.0018384229,-0.0002798642,0.1746061661,-0.0001191722
557728.9900230180,0.0010039293,9.7906724114,-0.0129548012,0.0015223363,0.1745736142,-0.0000974771
557729.0000230180,0.0031499696,9.7950935437,0.0096021723,0.0004692432,0.1746604192,-0.0001083246
557729.0100230180,0.0037990362,9.7920532839,-0.0061140716,0.0002521106,0.1750293404,-0.0001300198
557729.0200230180,0.0030661434,9.7912859953,-0.0027528620,0.0016417592,0.1747255230,-0.0001083246
557729.0300230180,0.0014665593,9.7946295016,0.0087008606,-0.0002472943,0.1747255230,-0.0000974771
557729.0400230180,0.0015951391,9.7902185122,-0.0155527513,0.0011097844,0.1746387180,-0.0000866295
557729.0500230180,0.0040455969,9.7941834532,0.0066964559,0.0010012181,0.1746712699,-0.0001083246
557729.0600230180,0.0035427927,9.7929642090,0.0004468040,-0.0001061581,0.1747038217,-0.0001300198
557729.0700230181,0.0016414997,9.7908258423,-0.0094520820,0.0017177556,0.1747472242,-0.0000974771
557729.0800230179,0.0016288996,9.7952395401,0.0102249685,0.0001001178,0.1746712699,-0.0000974771
557729.0900230180,0.0030021288,9.7908321642,-0.0109885982,0.0005995228,0.1745302118,-0.0000866295
557729.1000230180,0.0036989258,9.7923546572,0.0005977660,0.0014680531,0.1745410624,-0.0001083246
557729.1100230180,0.0029614457,9.7946374903,0.0048754293,-0.0003341473,0.1747255230,-0.0001300198
557729.1200230180,0.0009959947,9.7905203705,-0.0140224393,0.0015006230,0.1746170167,-0.0000866295
557729.1300230180,0.0022329180,9.7949374040,0.0093046955,0.0005560963,0.1746170167,-0.0000974771
557729.1400230180,0.0045732723,9.7919032584,-0.0047478972,0.0001218311,0.1746712699,-0.0001083246
557729.1500230180,0.0034994067,9.7915942443,-0.0056542141,0.0017177556,0.1746278674,-0.0000974771
557729.1600230180,0.0013061471,9.7950868042,0.0079397898,-0.0002364377,0.1747146723,-0.0000974771
557729.1700230180,0.0020643340,9.7903722205,-0.0140313902,0.0010229313,0.1746495686,-0.0000866295
557729.1800230180,0.0037392512,9.7935723033,0.0062411851,0.0010989277,0.1746712699,-0.0001083246
557729.1900230180,0.0038491384,9.7935753589,0.0009020749,-0.0002472943,0.1746712699,-0.0001300198
557729.2000230181,0.0011625568,9.7906726895,-0.0121935212,0.0017503255,0.1746278674,-0.0001083246
557729.2100230179,0.0016313366,9.7952394013,0.0105299880,0.0001652576,0.1746170167,-0.0001083246
557729.2200230180,0.0031674724,9.7909845526,-0.0093121898,0.0005126697,0.1745302118,-0.0000974771
557729.2300230180,0.0033841653,9.7929639309,-0.0003144760,0.0015223363,0.1745085105,-0.0000974771
557729.2400230180,0.0029736021,9.7943318115,0.0062478776,-0.0003015774,0.1746061661,-0.0001191722
557729.2500230180,0.0013034442,9.7899115134,-0.0140252558,0.0014029134,0.1745844649,-0.0001083246
557729.2600230180,0.0034513265,9.7944850338,0.0088368070,0.0007189457,0.1746821205,-0.0001083246
557729.2700230180,0.0035183939,9.7926606134,-0.0027560404,0.0000132648,0.1746387180,-0.0001191722
557729.2800230180,0.0030180267,9.7914412303,-0.0087006728,0.0017394689,0.1746278674,-0.0001083246
557729.2900230180,0.0016318742,9.7944769055,0.0102246197,-0.0000735882,0.1747038217,-0.0001191722
557729.3000230180,0.0025262178,9.7905263455,-0.0134250876,0.0008057987,0.1746495686,-0.0000974771
557729.3100230180,0.0035660017,9.7935728585,0.0036497880,0.0012400639,0.1746278674,-0.0000974771
557729.3200230181,0.0037179417,9.7937260107,0.0036485890,-0.0002581509,0.1746387180,-0.0001300198
557729.3300230179,0.0020710788,9.7908293152,-0.0129636126,0.0016526158,0.1746712699,-0.0001191722
557729.3400230180,0.0020906974,9.7944787119,0.0103733232,0.0003606769,0.1747038217,-0.0001300198
557729.3500230180,0.0025683280,9.7912864109,-0.0077818778,0.0002629673,0.1746061661,-0.0000974771
557729.3600230180,0.0032065506,9.7918972837,-0.0039739298,0.0016091893,0.1745410624,-0.0000974771
557729.3700230180,0.0028217481,9.7950936125,0.0067070244,-0.0003015774,0.1746712699,-0.0001191722
557729.3800230180,0.0025268127,9.7903738186,-0.0134251574,0.0012183507,0.1747363736,-0.0000974771
557729.3900230180,0.0026886233,9.7941769230,0.0086905014,0.0009252217,0.1745844649,-0.0001083246
557729.4000230180,0.0035274610,9.7918976316,-0.0019938404,-0.0000844449,0.1746278674,-0.0000974771
557729.4100230180,0.0023895522,9.7908298020,-0.0112885428,0.0017503255,0.1745844649,-0.0001083246
557729.4200230180,0.0027063633,9.7949383772,0.0112835161,0.0000024082,0.1747689255,-0.0001083246
557729.4300230180,0.0020863244,9.7909809394,-0.0109809160,0.0006863758,0.1746495686,-0.0000974771
557729.4400230180,0.0032444390,9.7931150687,0.0013644698,0.0014029134,0.1746495686,-0.0001191722
557729.4500230181,0.0040351679,9.7934215825,0.0050184998,-0.0003341473,0.1747146723,-0.0001300198
557729.4600230179,0.0020612447,9.7899149175,-0.0146416385,0.0015331929,0.1746712699,-0.0001083246
557729.4700230180,0.0017862799,9.7949349033,0.0106810895,0.0005778095,0.1745953155,-0.0000974771
557729.4800230180,0.0039582299,9.7915960507,-0.0055055105,0.0000784046,0.1746604192,-0.0001083246
557729.4900230180,0.0031851264,9.7908310535,-0.0071771230,0.0017286122,0.1745627636,-0.0000974771
557729.5000230180,0.0029931269,9.7946356849,0.0088406830,-0.0001495846,0.1745519130,-0.0001191722
557729.5100230180,0.0020686131,9.7905244697,-0.0134212814,0.0008817951,0.1745953155,-0.0000974771
557729.5200230180,0.0031193349,9.7932653733,0.0048735327,0.0012834904,0.1745519130,-0.0001191722
557729.5300230180,0.0041676118,9.7935758457,0.0025771447,-0.0002798642,0.1746278674,-0.0001300198
557729.5400230180,0.0026708467,9.7906799144,-0.0143413452,0.0016309026,0.1746604192,-0.0000974771
557729.5500230180,0.0014720856,9.7950866657,0.0096161284,0.0003715336,0.1746278674,-0.0001083246
557729.5600230180,0.0025762339,9.7911334674,-0.0068668890,0.0002303974,0.1746604192,-0.0000974771
557729.5700230181,0.0038294416,9.7914415792,-0.0026066262,0.0016200459,0.1746387180,-0.0000974771
557729.5800230179,0.0034409836,9.7946381162,0.0076167987,-0.0001495846,0.1746712699,-0.0001300198
557729.5900230180,0.0011338215,9.7896068759,-0.0163117729,0.0011532109,0.1747689255,-0.0001083246
557729.6000230180,0.0031291976,9.7944847554,0.0067042079,0.0008926518,0.1747255230,-0.0000974771
557729.6100230180,0.0038466440,9.7929655290,0.0002917568,-0.0000735882,0.1746278674,-0.0001300198
557729.6200230180,0.0024121089,9.7909810096,-0.0083907876,0.0017286122,0.1746387180,-0.0001083246
557729.6300230180,0.0030004379,9.7946352683,0.0097557415,0.0000349781,0.1746495686,-0.0001300198
557729.6400230180,0.0014615340,9.7906742872,-0.0129586074,0.0006103794,0.1745410624,-0.0000866295
557729.6500230180,0.0029515256,9.7928081394,0.0027394556,0.0013812001,0.1745736142,-0.0001191722
557729.6600230180,0.0045080470,9.7938800669,0.0071500395,-0.0002472943,0.1746604192,-0.0001300198
557729.6700230180,0.0016042349,9.7897605148,-0.0146379020,0.0015440495,0.1745302118,-0.0001191722
557729.6800230180,0.0022182959,9.7949382373,0.0074745784,0.0005235264,0.1746061661,-0.0000974771
557729.6900230180,0.0038087556,9.7917477440,-0.0050466428,0.0001109745,0.1746929711,-0.0001083246
557729.7000230181,0.0027501644,9.7918953385,-0.0038176138,0.0016743291,0.1745844649,-0.0001083246
557729.7100230179,0.0032994152,9.7946368660,0.0089906553,-0.0001712979,0.1746387180,-0.0001300198
557729.7200230180,0.0018983668,9.7900673747,-0.0158603781,0.0010663578,0.1746712699,-0.0001300198
557729.7300230180,0.0021962768,9.7940245340,0.0042714549,0.0010555012,0.1746604192,-0.0001083246
557729.7400230180,0.0046263777,9.7929676833,0.0024205497,-0.0001930112,0.1746712699,-0.0000974771
557729.7500230180,0.0031644118,9.7908322340,-0.0097697889,0.0017286122,0.1746061661,-0.0000974771
557729.7600230180,0.0019260061,9.7947837654,0.0090021437,0.0001435444,0.1746929711,-0.0001300198
557729.7700230180,0.0028514360,9.7909839270,-0.0106822402,0.0005018131,0.1745627636,-0.0000974771
557729.7800230180,0.0021638573,9.7926539443,-0.0004569754,0.0015006230,0.1745627636,-0.0001083246
557729.7900230180,0.0045051011,9.7949476859,0.0073030375,-0.0002798642,0.1747146723,-0.0001517150
557729.8000230180,0.0028276034,9.7902228200,-0.0140378036,0.0014354832,0.1745410624,-0.0001191722
557729.8100230180,0.0014555927,9.7946301265,0.0073282728,0.0006972324,0.1746170167,-0.0001083246
557729.8200230181,0.0035135199,9.7926608911,-0.0033660794,0.0000024082,0.1746929711,-0.0000974771
557729.8300230179,0.0036446306,9.7915952862,-0.0065705414,0.0016960423,0.1745844649,-0.0000974771
557729.8400230180,0.0039125581,9.7941817169,0.0091378808,-0.0000844449,0.1747146723,-0.0001408674
557729.8500230180,0.0023706223,9.7903734017,-0.0138814179,0.0009469349,0.1746712699,-0.0001083246
557729.8600230180,0.0031175501,9.7937229541,0.0048737420,0.0011966374,0.1746495686,-0.0001083246
557729.8700230180,0.0044817774,9.7931190988,0.0034894565,-0.0002147244,0.1747255230,-0.0001300198
557729.8800230180,0.0025383742,9.7902206668,-0.0120526393,0.0016960423,0.1746387180,-0.0000974771
557729.8900230180,0.0031468803,9.7946362407,0.0089919240,0.0001869709,0.1747146723,-0.0000974771
557729.9000230180,0.0036238873,9.7912914822,-0.0093158565,0.0004583866,0.1746170167,-0.0000974771
557729.9100230180,0.0026184301,9.7928084859,-0.0007657314,0.0015006230,0.1746712699,-0.0001083246
557729.9200230180,0.0032696048,9.7950960438,0.0054831401,-0.0002472943,0.1746495686,-0.0001191722
557729.9300230190,0.0025158175,9.7900694592,-0.0149503945,0.0013812001,0.1746170167,-0.0001300198
557729.9400230190,0.0028497164,9.7944820466,0.0099094503,0.0007406590,0.1746712699,-0.0001083246
557729.9500230190,0.0030588897,9.7918963807,-0.0033626220,0.0000024082,0.1746387180,-0.0000974771
557729.9600230190,0.0034768213,9.7911380523,-0.0087046185,0.0017286122,0.1745519130,-0.0001083246
557729.9700230190,0.0031346952,9.7946369351,0.0074668264,-0.0001061581,0.1745410624,-0.0001191722
557729.9800230190,0.0025335288,9.7905259289,-0.0125100291,0.0008926518,0.1746278674,-0.0001191722
557729.9900230190,0.0023658135,9.7934142183,0.0061000242,0.0012617772,0.1745953155,-0.0000974771
557730.0000230190,0.0030992438,9.7934190112,0.0024334464,-0.0002472943,0.1746495686,-0.0001300198
557730.0100230190,0.0038935344,9.7903797933,-0.0141991248,0.0016743291,0.1749208342,-0.0001083246
557730.0200230191,0.0030102433,9.7952446816,0.0112811181,0.0002738239,0.1746821205,-0.0001300198
557730.0300230189,0.0025714172,9.7917437139,-0.0071716295,0.0002846805,0.1747038217,-0.0000974771
557730.0400230190,0.0027544722,9.7923525720,-0.0030548557,0.0016526158,0.1745844649,-0.0001083246
557730.0500230190,0.0042079085,9.7944885074,0.0080679145,-0.0002472943,0.1747255230,-0.0001191722
557730.0600230190,0.0034298658,9.7906832491,-0.0148052181,0.0012400639,0.1746712699,-0.0001083246
557730.0700230190,0.0026819072,9.7940248127,0.0077753731,0.0009360783,0.1746278674,-0.0000974771
557730.0800230190,0.0038302085,9.7931189586,-0.0016908003,-0.0001278714,0.1747255230,-0.0000974771
557730.0900230190,0.0028538443,9.7906788037,-0.0105298699,0.0017503255,0.1746495686,-0.0000974771
557730.1000230190,0.0030017138,9.7952451676,0.0102135498,0.0000241214,0.1746170167,-0.0001300198
557730.1100230190,0.0031394467,9.7909861496,-0.0128199143,0.0006972324,0.1746170167,-0.0001083246
557730.1200230190,0.0038808482,9.7938785379,0.0050199778,0.0013703435,0.1746170167,-0.0001191722
557730.1300230190,0.0026441621,9.7943319497,0.0032002199,-0.0002364377,0.1746278674,-0.0001300198
557730.1400230190,0.0026696282,9.7906799838,-0.0144938549,0.0015549062,0.1746387180,-0.0000974771
557730.1500230191,0.0037607328,9.7952485023,0.0097496769,0.0004475300,0.1746170167,-0.0000974771
557730.1600230190,0.0028843644,9.7912870365,-0.0064118274,0.0001978275,0.1746278674,-0.0001083246
557730.1700230190,0.0021442752,9.7917401021,-0.0033550793,0.0016634725,0.1745627636,-0.0001083246
557730.1800230190,0.0028272171,9.7949408078,0.0073169937,-0.0001821545,0.1746604192,-0.0001300198
557730.1900230190,0.0034413699,9.7899201284,-0.0137379986,0.0011314976,0.1745953155,-0.0001191722
557730.2000230190,0.0035904005,9.7938764541,0.0068526324,0.0009577916,0.1746495686,-0.0001191722
557730.2100230190,0.0030790955,9.7929626804,-0.0003119385,-0.0000627316,0.1746170167,-0.0000974771
557730.2200230190,0.0030174031,9.7912887728,-0.0088532523,0.0016743291,0.1746387180,-0.0000974771
557730.2300230190,0.0036008008,9.7943333405,0.0083779393,0.0000349781,0.1746495686,-0.0000974771
557730.2400230190,0.0036085842,9.7905298892,-0.0116038517,0.0007080891,0.1746278674,-0.0001408674
557730.2500230190,0.0035713559,9.7922001162,0.0036491602,0.0013703435,0.1746495686,-0.0001300198
557730.2600230190,0.0029492033,9.7940282159,0.0030450332,-0.0002690076,0.1746495686,-0.0001191722
557730.2700230191,0.0029691718,9.7902240702,-0.0154116602,0.0016091893,0.1746495686,-0.0000974771
557730.2800230189,0.0039302981,9.7949431711,0.0117308955,0.0004366733,0.1746821205,-0.0000974771
557730.2900230190,0.0037960043,9.7922059497,-0.0064190213,0.0001978275,0.1747689255,-0.0001083246
557730.3000230190,0.0028953309,9.7912864116,-0.0050392396,0.0017394689,0.1746495686,-0.0001083246
557730.3100230190,0.0023708595,9.7952438470,0.0076259589,-0.0002472943,0.1746604192,-0.0001191722
557730.3200230190,0.0035914104,9.7893109238,-0.0143495854,0.0010880711,0.1746712699,-0.0001083246
557730.3300230190,0.0040552876,9.7935729289,0.0076112355,0.0011206410,0.1746604192,-0.0001191722
557730.3400230190,0.0027710224,9.7934190800,-0.0004617016,-0.0001604413,0.1746495686,-0.0001191722
557730.3500230190,0.0026830605,9.7909842044,-0.0126635983,0.0016634725,0.1745736142,-0.0001083246
557730.3600230190,0.0043873366,9.7954025582,0.0118798083,0.0001435444,0.1746929711,-0.0001083246
557730.3700230190,0.0033260425,9.7903748619,-0.0088562083,0.0005778095,0.1746061661,-0.0001191722
557730.3800230190,0.0024664901,9.7926553337,-0.0007645324,0.0014680531,0.1745844649,-0.0001083246
557730.3900230190,0.0037185366,9.7935734838,0.0036485192,-0.0002581509,0.1746495686,-0.0001300198
557730.4000230191,0.0031412315,9.7905285689,-0.0128201235,0.0014680531,0.1745519130,-0.0001083246
557730.4100230190,0.0046892598,9.7943365370,0.0109617240,0.0006212360,0.1746712699,-0.0001191722
557730.4200230190,0.0022772853,9.7914368540,-0.0059491535,0.0001435444,0.1746278674,-0.0001083246
557730.4300230190,0.0027306109,9.7912864807,-0.0065630685,0.0016743291,0.1746278674,-0.0001083246
557730.4400230190,0.0037576435,9.7947911993,0.0091394286,-0.0001712979,0.1747255230,-0.0001191722
557730.4500230190,0.0029856073,9.7900706406,-0.0134291031,0.0010989277,0.1746278674,-0.0001191722
557730.4600230190,0.0037222208,9.7938782598,0.0042586978,0.0010989277,0.1745844649,-0.0000974771
557730.4700230190,0.0036971697,9.7931172223,0.0007506246,-0.0001821545,0.1746929711,-0.0001300198
557730.4800230190,0.0030088163,9.7906792901,-0.0102261192,0.0016960423,0.1745627636,-0.0001083246
557730.4900230190,0.0037667967,9.7949431707,0.0103595764,0.0001761142,0.1745736142,-0.0000974771
557730.5000230190,0.0037660218,9.7908352211,-0.0108424321,0.0005778095,0.1746604192,-0.0001408674
557730.5100230190,0.0032322253,9.7928107787,-0.0003132770,0.0014571965,0.1745736142,-0.0001083246
557730.5200230191,0.0029620406,9.7944849634,0.0048753595,-0.0002798642,0.1746495686,-0.0001191722
557730.5300230189,0.0034456203,9.7897673932,-0.0132805391,0.0015006230,0.1746495686,-0.0001083246
557730.5400230190,0.0040742461,9.7943343136,0.0103567599,0.0006212360,0.1746495686,-0.0001083246
557730.5500230190,0.0028759208,9.7922024758,-0.0070214479,0.0001001178,0.1747580748,-0.0000974771
557730.5600230190,0.0030435867,9.7911347877,-0.0056506172,0.0016526158,0.1746821205,-0.0000974771
557730.5700230190,0.0045257583,9.7943365366,0.0095904049,-0.0001712979,0.1746929711,-0.0001408674
557730.5800230190,0.0040503197,9.7902276833,-0.0137429340,0.0011097844,0.1745736142,-0.0001191722
557730.5900230190,0.0028210098,9.7937212174,0.0059438478,0.0010880711,0.1746278674,-0.0001300198
557730.6000230190,0.0020192284,9.7925003755,0.0004592821,-0.0001712979,0.1746387180,-0.0001191722
557730.6100230190,0.0033144810,9.7905280137,-0.0102287264,0.0016960423,0.1746712699,-0.0000866295
557730.6200230190,0.0048393864,9.7946422855,0.0108080850,0.0001544010,0.1745410624,-0.0001083246
557730.6300230190,0.0029942228,9.7909851077,-0.0119035870,0.0005995228,0.1746387180,-0.0001408674
557730.6400230190,0.0023249218,9.7926540835,0.0006093242,0.0014463399,0.1745844649,-0.0001300198
557730.6500230191,0.0031279504,9.7941798404,0.0063990489,-0.0003015774,0.1746278674,-0.0001191722
557730.6600230190,0.0038959714,9.7903796544,-0.0138941053,0.0015006230,0.1746170167,-0.0001191722
557730.6700230190,0.0054427812,9.7941876920,0.0097352325,0.0005995228,0.1746495686,-0.0001191722
557730.6800230190,0.0027276650,9.7923540997,-0.0064100704,0.0001435444,0.1746929711,-0.0001300198
557730.6900230190,0.0021277823,9.7912835630,-0.0056429350,0.0017177556,0.1746929711,-0.0000974771
557730.7000230190,0.0043726859,9.7950984071,0.0098970419,-0.0001930112,0.1747689255,-0.0001191722
557730.7100230190,0.0052675384,9.7900803670,-0.0142106830,0.0010663578,0.1747038217,-0.0001191722
557730.7200230190,0.0038905676,9.7935729980,0.0060874066,0.0010663578,0.1746278674,-0.0001300198
557730.7300230190,0.0015628995,9.7931083990,0.0009208966,-0.0001604413,0.1747146723,-0.0001191722
557730.7400230190,0.0019361979,9.7906751909,-0.0108272770,0.0017286122,0.1745627636,-0.0000974771
557730.7500230190,0.0043750942,9.7947932838,0.0100494122,0.0001544010,0.1746712699,-0.0000866295
557730.7600230190,0.0049796423,9.7912980819,-0.0114624118,0.0005778095,0.1746170167,-0.0001083246
557730.7700230191,0.0018691305,9.7924996113,0.0007655704,0.0014354832,0.1745519130,-0.0001083246
557730.7800230189,0.0022193998,9.7937182303,0.0070164910,-0.0002581509,0.1747363736,-0.0001191722
557730.7900230190,0.0040460979,9.7906854030,-0.0140477443,0.0015223363,0.1746278674,-0.0000974771
557730.8000230190,0.0051225231,9.7946447860,0.0080603719,0.0005778095,0.1746604192,-0.0001083246
557730.8100230190,0.0039528470,9.7926638085,-0.0056575320,0.0001544010,0.1747363736,-0.0000974771
557730.8200230190,0.0019862713,9.7918922815,-0.0039637799,0.0017068990,0.1745736142,-0.0001083246
557730.8300230190,0.0031535964,9.7947883510,0.0099070523,-0.0001604413,0.1746712699,-0.0000974771
557730.8400230190,0.0048057119,9.7905362108,-0.0145116870,0.0010446446,0.1746821205,-0.0001191722
557730.8500230190,0.0045037965,9.7940328021,0.0066925800,0.0010880711,0.1745844649,-0.0001300198
557730.8600230190,0.0024720451,9.7934174823,0.0003033847,-0.0001604413,0.1746278674,-0.0001408674
557730.8700230190,0.0022339853,9.7909818425,-0.0115922238,0.0017286122,0.1746387180,-0.0000866295
557730.8800230190,0.0042237778,9.7947925891,0.0102031907,0.0001652576,0.1745736142,-0.0000974771
557730.8900230190,0.0048428907,9.7906865851,-0.0097838147,0.0005778095,0.1746387180,-0.0001083246
557730.9000230191,0.0032359095,9.7931155548,0.0002969015,0.0014571965,0.1746604192,-0.0001083246
557730.9100230190,0.0025031600,9.7938731882,0.0044213574,-0.0002581509,0.1746387180,-0.0001300198
557730.9200230190,0.0029844174,9.7903756945,-0.0134289636,0.0014463399,0.1746278674,-0.0001083246
557730.9300230190,0.0048332938,9.7946426327,0.0100455362,0.0006103794,0.1747038217,-0.0001191722
557730.9400230190,0.0039595058,9.7922059500,-0.0050477023,0.0001978275,0.1746495686,-0.0001083246
557730.9500230190,0.0030357668,9.7922026844,-0.0061076581,0.0016417592,0.1745953155,-0.0001083246
557730.9600230190,0.0029870344,9.7946360321,0.0080781342,-0.0001061581,0.1746712699,-0.0000974771
557730.9700230190,0.0026860924,9.7908315386,-0.0123586485,0.0010229313,0.1746604192,-0.0001083246
557730.9800230190,0.0051169968,9.7941876218,0.0071451041,0.0010337880,0.1747255230,-0.0000974771
557730.9900230190,0.0039851518,9.7928144606,-0.0015396988,-0.0000518750,0.1746929711,-0.0001408674
557731.0000230200,0.0022389454,9.7918965179,-0.0105242369,0.0017177556,0.1747363736,-0.0001083246
557731.0100230200,0.0034714176,9.7943313959,0.0112768934,0.0001218311,0.1749533861,-0.0001083246
557731.0200230200,0.0039301469,9.7909876790,-0.0093185335,0.0006103794,0.1746170167,-0.0000974771
557731.0300230200,0.0043035678,9.7922049786,-0.0001699275,0.0014680531,0.1746278674,-0.0001191722
557731.0400230200,0.0026484126,9.7941792145,0.0036576794,-0.0002798642,0.1746387180,-0.0001300198
557731.0500230200,0.0031418550,9.7906810264,-0.0126675440,0.0014463399,0.1746495686,-0.0001083246
557731.0600230200,0.0046819488,9.7943369536,0.0100466654,0.0006320927,0.1745302118,-0.0000974771
557731.0700230200,0.0031913910,9.7926606127,-0.0054986786,0.0001652576,0.1746387180,-0.0001300198
557731.0800230200,0.0044109893,9.7919031887,-0.0059667065,0.0017068990,0.1745844649,-0.0000974771
557731.0900230200,0.0033012286,9.7944842697,0.0091430953,-0.0001821545,0.1745736142,-0.0001300198
557731.1000230199,0.0025225909,9.7908315382,-0.0137299676,0.0010446446,0.1746821205,-0.0001191722
557731.1100230200,0.0051114992,9.7940354421,0.0063824855,0.0010989277,0.1746495686,-0.0001083246
557731.1200230200,0.0027691803,9.7932666920,-0.0007667908,-0.0001712979,0.1746387180,-0.0001300198
557731.1300230200,0.0036189559,9.7906817912,-0.0102311941,0.0017068990,0.1746604192,-0.0001191722
557731.1400230200,0.0045458780,9.7944878831,0.0121831405,0.0001869709,0.1746712699,-0.0001408674
557731.1500230200,0.0027013094,9.7906781784,-0.0105286012,0.0005995228,0.1745844649,-0.0001191722
557731.1600230200,0.0042987798,9.7931202095,-0.0003220187,0.0014137700,0.1746604192,-0.0001083246
557731.1700230200,0.0043348548,9.7944905909,0.0048639409,-0.0002581509,0.1746387180,-0.0001408674
557731.1800230200,0.0029868258,9.7900705712,-0.0132765933,0.0014463399,0.1745736142,-0.0001300198
557731.1900230200,0.0040651217,9.7944873266,0.0092892613,0.0006646626,0.1746387180,-0.0001517150
557731.2000230200,0.0035067751,9.7922037964,-0.0044338570,0.0001218311,0.1746387180,-0.0001083246
557731.2100230200,0.0036452255,9.7914427593,-0.0065706111,0.0017068990,0.1744976599,-0.0000974771
557731.2200230201,0.0048229222,9.7944907307,0.0086728786,-0.0001604413,0.1745844649,-0.0001300198
557731.2300230199,0.0026847879,9.7899166548,-0.0129691061,0.0010446446,0.1745519130,-0.0001191722
557731.2400230200,0.0038875930,9.7943356326,0.0060877554,0.0010880711,0.1745844649,-0.0001191722
557731.2500230200,0.0041432416,9.7935772344,-0.0004730504,-0.0001821545,0.1748448798,-0.0001300198
557731.2600230200,0.0045195719,9.7909913605,-0.0119162744,0.0016960423,0.1748123280,-0.0001083246
557731.2700230200,0.0036257946,9.7944844092,0.0115807139,0.0001978275,0.1746821205,-0.0001300198
557731.2800230200,0.0030100921,9.7912891894,-0.0097683109,0.0005343830,0.1746387180,-0.0000974771
557731.2900230200,0.0029167551,9.7923526418,-0.0018360464,0.0015549062,0.1745844649,-0.0001083246
557731.3000230200,0.0043531324,9.7944895493,0.0071515873,-0.0003124341,0.1745844649,-0.0001191722
557731.3100230200,0.0045066772,9.7899246442,-0.0140518993,0.0013703435,0.1746387180,-0.0001191722
557731.3200230200,0.0034548960,9.7935698723,0.0088363885,0.0007732289,0.1746278674,-0.0001408674
557731.3300230200,0.0030571623,9.7929639303,-0.0030571142,0.0000241214,0.1746170167,-0.0001191722
557731.3400230200,0.0047014084,9.7916002881,-0.0079520104,0.0017286122,0.1745302118,-0.0001083246
557731.3500230199,0.0043708438,9.7949460190,0.0095919527,-0.0001061581,0.1745085105,-0.0001191722
557731.3600230200,0.0032992066,9.7900714051,-0.0123640723,0.0009469349,0.1746170167,-0.0001191722
557731.3700230200,0.0032779336,9.7929606670,0.0054821635,0.0011532109,0.1746278674,-0.0001191722
557731.3800230200,0.0030766584,9.7929628192,-0.0006169581,-0.0001712979,0.1746278674,-0.0001300198
557731.3900230200,0.0046769235,9.7903817392,-0.0116128026,0.0016309026,0.1747146723,-0.0001191722
557731.4000230200,0.0042426503,9.7946390206,0.0124907673,0.0002629673,0.1746061661,-0.0001083246
557731.4100230200,0.0042352167,9.7909889295,-0.0093210710,0.0005126697,0.1746495686,-0.0001191722
557731.4200230200,0.0029167838,9.7926576262,-0.0016833971,0.0015331929,0.1746712699,-0.0001083246
557731.4300230200,0.0041981031,9.7938790941,0.0065425379,-0.0002798642,0.1746387180,-0.0001300198
557731.4400230200,0.0028312876,9.7905275961,-0.0134276251,0.0013269169,0.1746278674,-0.0001408674
557731.4500230200,0.0040693721,9.7943345914,0.0097467209,0.0008275120,0.1746278674,-0.0001300198
557731.4600230200,0.0028990725,9.7922011565,-0.0041237625,0.0000024082,0.1745519130,-0.0001191722
557731.4700230201,0.0037721717,9.7914448427,-0.0097745848,0.0017828954,0.1745302118,-0.0001083246
557731.4800230199,0.0048358456,9.7958624314,0.0109611528,-0.0000627316,0.1746061661,-0.0001191722
557731.4900230200,0.0043706925,9.7909905269,-0.0114574763,0.0008275120,0.1746278674,-0.0001517150
557731.5000230200,0.0031089345,9.7928084869,0.0033482259,0.0013269169,0.1746278674,-0.0001191722
557731.5100230200,0.0041694539,9.7937282337,0.0028822340,-0.0003124341,0.1747363736,-0.0001300198
557731.5200230200,0.0037434365,9.7903790292,-0.0138928366,0.0016526158,0.1746170167,-0.0001083246
557731.5300230200,0.0043933431,9.7944872578,0.0121844093,0.0003823902,0.1746061661,-0.0001083246
557731.5400230200,0.0048557567,9.7914483170,-0.0078008391,0.0003606769,0.1747255230,-0.0001300198
557731.5500230200,0.0029057312,9.7917432980,-0.0035139328,0.0016417592,0.1745844649,-0.0001083246
557731.5600230200,0.0043598772,9.7949466440,0.0082193648,-0.0002581509,0.1747689255,-0.0001191722
557731.5700230200,0.0037488767,9.7899212401,-0.0134355165,0.0012183507,0.1746712699,-0.0001083246
557731.5800230200,0.0043603574,9.7935741795,0.0076086980,0.0009360783,0.1745844649,-0.0001083246
557731.5900230200,0.0047471740,9.7923601451,-0.0018512713,-0.0000953015,0.1747038217,-0.0001300198
557731.6000230199,0.0036129207,9.7912921072,-0.0106884444,0.0017828954,0.1746061661,-0.0001083246
557731.6100230200,0.0030163072,9.7949393500,0.0118910177,0.0000241214,0.1746170167,-0.0001300198
557731.6200230200,0.0037726806,9.7903773626,-0.0102326024,0.0007189457,0.1747038217,-0.0001083246
557731.6300230200,0.0038484575,9.7928129326,0.0004441968,0.0014137700,0.1746712699,-0.0001083246
557731.6400230200,0.0047801884,9.7935782079,0.0028770893,-0.0003124341,0.1747038217,-0.0001408674
557731.6500230200,0.0028305780,9.7894601854,-0.0140381524,0.0015223363,0.1746495686,-0.0001083246
557731.6600230200,0.0039297032,9.7950956980,0.0117309652,0.0005886662,0.1746712699,-0.0001083246
557731.6700230200,0.0051755059,9.7920587031,-0.0056679609,0.0001869709,0.1746604192,-0.0001083246
557731.6800230200,0.0045507155,9.7917520508,-0.0076456524,0.0017177556,0.1746712699,-0.0001083246
557731.6900230200,0.0040675874,9.7947921721,0.0097469301,-0.0001712979,0.1747363736,-0.0001300198
557731.7000230200,0.0028434440,9.7902219173,-0.0120551768,0.0010229313,0.1746170167,-0.0001300198
557731.7100230200,0.0034202403,9.7943343123,0.0048714836,0.0012074940,0.1745736142,-0.0001083246
557731.7200230201,0.0046111607,9.7931210434,0.0005905024,-0.0002255810,0.1746495686,-0.0001300198
557731.7300230199,0.0031370097,9.7909862885,-0.0131249338,0.0016634725,0.1744434068,-0.0001083246
557731.7400230200,0.0045538413,9.7949449084,0.0134034279,0.0003281071,0.1746170167,-0.0001300198
557731.7500230200,0.0042498675,9.7912930806,-0.0073383046,0.0003823902,0.1746495686,-0.0001300198
557731.7600230200,0.0039661646,9.7917480915,-0.0044378725,0.0016526158,0.1745302118,-0.0001083246
557731.7700230200,0.0042005688,9.7941839396,0.0070002067,-0.0002690076,0.1747363736,-0.0001408674
557731.7800230200,0.0032961747,9.7902240709,-0.0126690220,0.0012617772,0.1746387180,-0.0001083246
557731.7900230200,0.0039016202,9.7944873263,0.0079179423,0.0009469349,0.1745519130,-0.0001083246
557731.8000230200,0.0039881837,9.7926617948,-0.0012347490,-0.0000735882,0.1747363736,-0.0001300198
557731.8100230200,0.0042236552,9.7911420814,-0.0106935891,0.0017177556,0.1746929711,-0.0001191722
557731.8200230200,0.0045446882,9.7947929370,0.0121832800,0.0000349781,0.1746495686,-0.0001300198
557731.8300230200,0.0040692496,9.7906840837,-0.0111500589,0.0007298023,0.1747472242,-0.0001408674
557731.8400230200,0.0038412324,9.7937283025,-0.0000129139,0.0014029134,0.1746387180,-0.0001300198
557731.8500230199,0.0038668498,9.7940318287,0.0033424403,-0.0002364377,0.1746387180,-0.0001300198
557731.8600230200,0.0039124069,9.7902262248,-0.0119115482,0.0015331929,0.1746170167,-0.0000974771
557731.8700230200,0.0043830288,9.7949453247,0.0111170502,0.0005560963,0.1745627636,-0.0001083246
557731.8800230200,0.0047032791,9.7920576605,-0.0074942718,0.0001978275,0.1746278674,-0.0001300198
557731.8900230200,0.0033420264,9.7918988812,-0.0061103351,0.0017286122,0.1745736142,-0.0001191722
557731.9000230200,0.0037631411,9.7949433791,0.0099020471,-0.0001930112,0.1746278674,-0.0001191722
557731.9100230200,0.0034383666,9.7903777786,-0.0138902991,0.0011206410,0.1747146723,-0.0001191722
557731.9200230200,0.0041890073,9.7943370915,0.0056276887,0.0010989277,0.1746712699,-0.0001083246
557731.9300230200,0.0035433876,9.7928116821,0.0004467343,-0.0001604413,0.1746604192,-0.0001300198
557731.9400230200,0.0037660505,9.7911402055,-0.0106897829,0.0016634725,0.1747363736,-0.0000974771
557731.9500230200,0.0051566413,9.7946428417,0.0123306451,0.0002303974,0.1746495686,-0.0001300198
557731.9600230200,0.0042267445,9.7915993844,-0.0100833408,0.0005343830,0.1746387180,-0.0001408674
557731.9700230201,0.0035342058,9.7923547263,-0.0009260628,0.0015006230,0.1746604192,-0.0001083246
557731.9800230199,0.0034312355,9.7946386717,0.0063967206,-0.0002690076,0.1746495686,-0.0001300198
557731.9900230200,0.0040527854,9.7905325289,-0.0132852652,0.0014571965,0.1745736142,-0.0001083246
557732.0000230200,0.0040743035,9.7949442824,0.0106620584,0.0006755192,0.1746495686,-0.0001191722
557732.0100230200,0.0037965992,9.7920534228,-0.0064190911,0.0001109745,0.1749099836,-0.0000974771
557732.0200230200,0.0043993131,9.7908364029,-0.0079498217,0.0017503255,0.1745519130,-0.0000974771
557732.0300230200,0.0043903972,9.7955548768,0.0123374073,-0.0001712979,0.1746387180,-0.0001408674
557732.0400230200,0.0037574063,9.7899207540,-0.0123679482,0.0010120747,0.1745410624,-0.0001191722
557732.0500230200,0.0024897565,9.7938739520,0.0027437501,0.0012400639,0.1746387180,-0.0000974771
557732.0600230200,0.0049186962,9.7934271395,0.0010456337,-0.0002690076,0.1746712699,-0.0001191722
557732.0700230200,0.0033035144,9.7905286387,-0.0116013142,0.0016526158,0.1745085105,-0.0001083246
557732.0800230210,0.0043940527,9.7955546685,0.0127949366,0.0003606769,0.1747146723,-0.0001300198
557732.0900230210,0.0043890275,9.7915994541,-0.0088645314,0.0003498203,0.1747038217,-0.0001300198
557732.1000230210,0.0030576999,9.7922014345,-0.0033624825,0.0016309026,0.1746170167,-0.0001191722
557732.1100230210,0.0052817168,9.7941875527,0.0086689329,-0.0003232907,0.1747906267,-0.0001408674
557732.1200230210,0.0045139883,9.7899242276,-0.0131368407,0.0013703435,0.1746495686,-0.0001191722
557732.1300230210,0.0031364800,9.7941793544,0.0074666172,0.0008600819,0.1745193611,-0.0001191722
557732.1400230210,0.0045891989,9.7928173089,-0.0023073225,-0.0000518750,0.1747146723,-0.0001191722
557732.1500230210,0.0045536614,9.7906844318,-0.0077986504,0.0017937520,0.1745844649,-0.0001083246
557732.1600230210,0.0045367823,9.7949458805,0.0112682913,-0.0000410183,0.1746170167,-0.0001408674
557732.1700230211,0.0045141317,9.7914491496,-0.0123735944,0.0007949421,0.1747038217,-0.0001191722
557732.1800230209,0.0032505029,9.7928097372,0.0019743693,0.0014137700,0.1744651080,-0.0001191722
557732.1900230210,0.0041701635,9.7947956444,0.0034927613,-0.0003450040,0.1745736142,-0.0001191722
557732.2000230210,0.0051138423,9.7906897799,-0.0140566254,0.0016200459,0.1746278674,-0.0000974771
557732.2100230210,0.0037771683,9.7950950727,0.0117322340,0.0005560963,0.1745627636,-0.0001191722
557732.2200230210,0.0041028875,9.7920546039,-0.0062691188,0.0002086841,0.1746821205,-0.0001408674
557732.2300230210,0.0051785379,9.7919060373,-0.0053630112,0.0016526158,0.1746821205,-0.0001083246
557732.2400230210,0.0042067187,9.7947935612,0.0080680541,-0.0001604413,0.1746495686,-0.0001300198
557732.2500230210,0.0051266796,9.7911465274,-0.0122262991,0.0011532109,0.1747038217,-0.0001083246
557732.2600230210,0.0037338396,9.7943350768,0.0059365144,0.0010555012,0.1746712699,-0.0001191722
557732.2700230210,0.0029101537,9.7934204691,-0.0021405776,-0.0001061581,0.1746929711,-0.0000974771
557732.2800230210,0.0049985149,9.7911445134,-0.0091748352,0.0017286122,0.1747689255,-0.0001191722
557732.2900230211,0.0053073914,9.7951010477,0.0123295856,0.0001001178,0.1746387180,-0.0001083246
557732.3000230209,0.0036123258,9.7914446341,-0.0106883746,0.0006538059,0.1745953155,-0.0001191722
557732.3100230210,0.0027703701,9.7929616381,-0.0007669303,0.0014680531,0.1746387180,-0.0001191722
557732.3200230210,0.0038833139,9.7941833834,0.0054776466,-0.0003015774,0.1745519130,-0.0000974771
557732.3300230210,0.0052791859,9.7908421683,-0.0123802171,0.0015223363,0.1745302118,-0.0001083246
557732.3400230210,0.0048375730,9.7947948819,0.0106556450,0.0006320927,0.1745736142,-0.0001083246
557732.3500230210,0.0036507804,9.7922049078,-0.0055026940,0.0001652576,0.1746061661,-0.0001083246
557732.3600230210,0.0037984126,9.7919008264,-0.0062666511,0.0016743291,0.1745953155,-0.0001191722
557732.3700230210,0.0052896801,9.7946445780,0.0098892202,-0.0001387280,0.1747038217,-0.0001300198
557732.3800230210,0.0052785623,9.7906897108,-0.0125327966,0.0011097844,0.1746387180,-0.0001083246
557732.3900230210,0.0047966526,9.7937297627,0.0050122957,0.0010880711,0.1745953155,-0.0001191722
557732.4000230210,0.0030882486,9.7931146518,0.0009082093,-0.0001061581,0.1747363736,-0.0001300198
557732.4100230210,0.0037703010,9.7909874703,-0.0102323233,0.0016634725,0.1746929711,-0.0000974771
557732.4200230211,0.0068223402,9.7946504141,0.0107915914,0.0001652576,0.1746278674,-0.0001300198
557732.4300230209,0.0043780609,9.7916000791,-0.0102371193,0.0005995228,0.1746278674,-0.0001517150
557732.4400230210,0.0027722409,9.7934190106,-0.0003091918,0.0015223363,0.1746170167,-0.0001300198
557732.4500230210,0.0028252603,9.7935684822,0.0064013073,-0.0002690076,0.1745519130,-0.0001300198
557732.4600230210,0.0061931481,9.7905410050,-0.0126929885,0.0015006230,0.1746929711,-0.0001083246
557732.4700230210,0.0060426352,9.7949532443,0.0088154478,0.0006755192,0.1745627636,-0.0001191722
557732.4800230210,0.0036581202,9.7925094756,-0.0044349862,0.0000675479,0.1745736142,-0.0001408674
557732.4900230210,0.0028995814,9.7911336764,-0.0045817801,0.0017828954,0.1746495686,-0.0001083246
557732.5000230210,0.0042231542,9.7946401316,0.0100506112,-0.0000735882,0.1746495686,-0.0001408674
557732.5100230210,0.0048014614,9.7906889460,-0.0149691465,0.0009577916,0.1746278674,-0.0001191722
557732.5200230210,0.0060224008,9.7935819602,0.0056121150,0.0012292073,0.1747146723,-0.0001191722
557732.5300230210,0.0023536857,9.7940248815,0.0048802252,-0.0002147244,0.1746604192,-0.0001300198
557732.5400230211,0.0040576594,9.7905322511,-0.0126752262,0.0017177556,0.1746495686,-0.0001083246
557732.5500230209,0.0048315091,9.7951002135,0.0100457455,0.0002955372,0.1746604192,-0.0001300198
557732.5600230210,0.0053090823,9.7912979437,-0.0084147541,0.0004149601,0.1745736142,-0.0001408674
557732.5700230210,0.0039851231,9.7925094762,-0.0016923481,0.0015766194,0.1744868093,-0.0001083246
557732.5800230210,0.0034440155,9.7944854504,0.0079217485,-0.0002255810,0.1746170167,-0.0001191722
557732.5900230210,0.0034280523,9.7908358454,-0.0149576581,0.0013269169,0.1745844649,-0.0000974771
557732.6000230210,0.0063476477,9.7943445260,0.0085076117,0.0008492253,0.1746170167,-0.0001083246
557732.6100230210,0.0058180364,9.7931268095,-0.0010972549,-0.0000193051,0.1747255230,-0.0001300198
557732.6200230210,0.0028618650,9.7917457977,-0.0090042841,0.0017937520,0.1746278674,-0.0001191722
557732.6300230210,0.0040761169,9.7947916861,0.0108144984,0.0000132648,0.1746712699,-0.0001300198
557732.6400230210,0.0052719322,9.7914525537,-0.0129899771,0.0006972324,0.1746821205,-0.0001408674
557732.6500230210,0.0055464898,9.7932761416,0.0031756256,0.0014463399,0.1746387180,-0.0001083246
557732.6600230210,0.0048046159,9.7941867879,0.0062325830,-0.0002472943,0.1747580748,-0.0001408674
557732.6700230211,0.0037416517,9.7908366099,-0.0138926273,0.0015766194,0.1746278674,-0.0001083246
557732.6800230209,0.0046747237,9.7952523234,0.0095895547,0.0005343830,0.1746712699,-0.0001191722
557732.6900230210,0.0047209331,9.7919041615,-0.0053592050,0.0001435444,0.1747146723,-0.0001300198
557732.7000230210,0.0044262063,9.7917498285,-0.0041366592,0.0017286122,0.1745736142,-0.0001191722
557732.7100230210,0.0042231255,9.7943351472,0.0098979619,-0.0001604413,0.1746170167,-0.0001408674
557732.7200230210,0.0029801383,9.7902234453,-0.0140390724,0.0010880711,0.1745519130,-0.0001083246
557732.7300230210,0.0051060015,9.7938832624,0.0056198670,0.0011966374,0.1745627636,-0.0001083246
557732.7400230210,0.0053879197,9.7938858323,0.0027196441,-0.0002364377,0.1746929711,-0.0001191722
557732.7500230210,0.0042162582,9.7902275448,-0.0120665954,0.0017177556,0.1746604192,-0.0001300198
557732.7600230210,0.0043830002,9.7946403403,0.0109644010,0.0002629673,0.1746821205,-0.0001408674
557732.7700230210,0.0037830809,9.7908342490,-0.0087072955,0.0004366733,0.1746821205,-0.0001191722
557732.7800230210,0.0044530708,9.7923582696,-0.0004761460,0.0016091893,0.1746604192,-0.0001191722
557732.7900230211,0.0054245036,9.7941887335,0.0074475861,-0.0002364377,0.1747146723,-0.0001408674
557732.8000230209,0.0032754601,9.7902252513,-0.0152616879,0.0013812001,0.1746495686,-0.0001191722
557732.8100230210,0.0040571297,9.7937253170,0.0079163247,0.0008709385,0.1746278674,-0.0001083246
557732.8200230210,0.0042993747,9.7929676826,-0.0003220884,-0.0000844449,0.1746929711,-0.0001300198
557732.8300230210,0.0040912400,9.7912928026,-0.0080995847,0.0017503255,0.1745302118,-0.0001300198
557732.8400230210,0.0048339174,9.7947950902,0.0101981157,0.0000349781,0.1745736142,-0.0001300198
557732.8500230210,0.0039227785,9.7903781268,-0.0105388906,0.0007732289,0.1746604192,-0.0001083246
557732.8600230210,0.0035568199,9.7931159027,0.0022769909,0.0013594868,0.1745953155,-0.0001191722
557732.8700230210,0.0055653623,9.7931225731,0.0054632022,-0.0001712979,0.1747363736,-0.0001191722
557732.8800230210,0.0055806575,9.7914535960,-0.0125349853,0.0015766194,0.1746712699,-0.0001191722
557732.8900230210,0.0048374869,9.7938799287,0.0101976972,0.0004366733,0.1746170167,-0.0001517150
557732.9000230210,0.0037893169,9.7923588238,-0.0071815004,0.0003389637,0.1746387180,-0.0000974771
557732.9100230210,0.0033699947,9.7912873153,-0.0029079092,0.0016200459,0.1746387180,-0.0001408674
557732.9200230211,0.0066557781,9.7944980952,0.0089626733,-0.0001930112,0.1746929711,-0.0001191722
557732.9300230209,0.0052638828,9.7900805753,-0.0146682122,0.0013052037,0.1746821205,-0.0001191722
557732.9400230210,0.0037459960,9.7940293980,0.0073089627,0.0009577916,0.1747255230,-0.0001191722
557732.9500230210,0.0041462736,9.7934245686,-0.0001681007,-0.0001278714,0.1747146723,-0.0001408674
557732.9600230210,0.0043883466,9.7908370279,-0.0093224095,0.0017394689,0.1745844649,-0.0001083246
557732.9700230210,0.0048479159,9.7946417995,0.0118756533,0.0000675479,0.1746278674,-0.0001408674
557732.9800230210,0.0048252367,9.7908400841,-0.0119188816,0.0007189457,0.1746387180,-0.0001191722
557732.9900230210,0.0034011957,9.7926579744,0.0016680113,0.0014571965,0.1746712699,-0.0001191722
557733.0000230210,0.0047954628,9.7940348165,0.0050124352,-0.0002690076,0.1746604192,-0.0001191722
557733.0100230210,0.0042107892,9.7903803495,-0.0126765647,0.0015223363,0.1749099836,-0.0000974771
557733.0200230210,0.0046898547,9.7941840101,0.0109616542,0.0006320927,0.1746495686,-0.0001408674
557733.0300230210,0.0039607530,9.7925108650,-0.0047425432,0.0001001178,0.1745736142,-0.0001083246
557733.0400230211,0.0045652803,9.7911412488,-0.0061208338,0.0017503255,0.1745627636,-0.0001191722
557733.0500230209,0.0046826010,9.7947943955,0.0103518942,-0.0001278714,0.1745844649,-0.0001408674
557733.0600230210,0.0051186877,9.7903845178,-0.0135992357,0.0011097844,0.1745736142,-0.0001191722
557733.0700230210,0.0042035434,9.7934213050,0.0069998579,0.0011097844,0.1745844649,-0.0001083246
557733.0800230210,0.0036984169,9.7934221373,0.0010557836,-0.0001495846,0.1747363736,-0.0001300198
557733.0900230210,0.0045274779,9.7908384170,-0.0110012856,0.0017177556,0.1746821205,-0.0001083246
557733.1000230210,0.0045336930,9.7944885775,0.0106580430,0.0001544010,0.1746278674,-0.0001083246
557733.1100230210,0.0043859095,9.7908371667,-0.0096274290,0.0005778095,0.1747472242,-0.0001191722
557733.1200230210,0.0044628188,9.7923577141,0.0007439321,0.0015766194,0.1746604192,-0.0001191722
