t(s),acc_x,acc_y,acc_z,gyro_x,gyro_y,gyro_z
557661.0000229540,-0.0010935771,9.7952269658,0.0131454911,-0.0008009824,0.0001172899,-0.0000106963
557661.0100229540,-0.0012774642,9.7899001893,-0.0124785897,0.0001109745,0.0000955887,0.0000001513
557661.0200229540,0.0002150791,9.7932538402,0.0041350900,0.0004366733,0.0000847381,0.0000001513
557661.0300229540,-0.0016225935,9.7938567223,0.0035405548,-0.0010615415,0.0001389912,-0.0000106963
557661.0400229540,-0.0012664116,9.7908145176,-0.0106480540,0.0008492253,0.0000738874,0.0000109989
557661.0500229540,-0.0012540180,9.7953792841,0.0122317711,-0.0003884305,0.0001064393,0.0000001513
557661.0600229540,-0.0006494412,9.7921890665,-0.0091274036,-0.0004101437,0.0001172899,0.0000001513
557661.0700229540,-0.0004353860,9.7920336930,-0.0015032542,0.0008275120,0.0000847381,0.0000001513
557661.0800229540,-0.0006609948,9.7947727885,0.0097862610,-0.0010072584,0.0001389912,-0.0000106963
557661.0900229540,-0.0015977224,9.7903572833,-0.0141534503,0.0005235264,0.0001064393,0.0000001513
557661.1000229541,-0.0011228786,9.7946186635,0.0091799584,0.0000132648,0.0000955887,0.0000109989
557661.1100229539,0.0004792859,9.7927999404,-0.0012054983,-0.0008335523,0.0001172899,0.0000109989
557661.1200229540,-0.0010918576,9.7917288461,-0.0074461993,0.0009795048,0.0000738874,0.0000001513
557661.1300229540,-0.0027842698,9.7950683247,0.0114817702,-0.0007901258,0.0001172899,0.0000001513
557661.1400229540,-0.0008154944,9.7909692675,-0.0114143393,0.0000349781,0.0001172899,0.0000109989
557661.1500229540,-0.0002456149,9.7927946614,0.0035286479,0.0005560963,0.0000955887,-0.0000106963
557661.1600229540,-0.0016048822,9.7943131921,0.0059809202,-0.0010832548,0.0001172899,-0.0000106963
557661.1700229540,-0.0028070637,9.7900466718,-0.0129233618,0.0007623722,0.0000847381,0.0000109989
557661.1800229540,0.0005799991,9.7947766103,0.0123687770,-0.0002907208,0.0000955887,0.0000001513
557661.1900229540,0.0004517978,9.7920390417,-0.0050185911,-0.0004969968,0.0001172899,0.0000001513
557661.2000229540,-0.0015153441,9.7917250260,-0.0031721199,0.0008275120,0.0000847381,0.0000001513
557661.2100229550,-0.0017360215,9.7950738126,0.0090327329,-0.0009529752,0.0001064393,0.0000001513
557661.2200229550,-0.0000669330,9.7899057470,-0.0137088176,0.0004041035,0.0001172899,0.0000001513
557661.2300229550,0.0002578702,9.7947763319,0.0102361778,0.0000675479,0.0000847381,0.0000001513
557661.2400229550,-0.0021162732,9.7924844651,-0.0016415986,-0.0008118390,0.0001064393,0.0000001513
557661.2500229550,-0.0018569978,9.7914208742,-0.0078975244,0.0009252217,0.0000847381,0.0000109989
557661.2600229550,-0.0009513852,9.7953806735,0.0119242141,-0.0007684125,0.0001172899,0.0000109989
557661.2700229550,0.0003999109,9.7909745475,-0.0120345282,0.0000675479,0.0001064393,0.0000001513
557661.2800229550,-0.0003962504,9.7935563930,0.0041403044,0.0005235264,0.0000955887,0.0000001513
557661.2900229550,-0.0022223328,9.7943111076,0.0050709366,-0.0010832548,0.0001064393,-0.0000215439
557661.3000229551,-0.0012786827,9.7899002588,-0.0126310994,0.0008166554,0.0000955887,0.0000109989
557661.3100229549,0.0001248601,9.7950795800,0.0128302520,-0.0003232907,0.0001064393,0.0000001513
557661.3200229550,0.0001351091,9.7915809743,-0.0066938702,-0.0005512799,0.0001064393,-0.0000106963
557661.3300229550,-0.0021376401,9.7920282037,-0.0045394932,0.0009035084,0.0000955887,0.0000001513
557661.3400229550,-0.0014206087,9.7949219808,0.0102502037,-0.0009855451,0.0001172899,0.0000109989
557661.3500229550,0.0005523884,9.7903652040,-0.0123410955,0.0003715336,0.0001064393,0.0000001513
557661.3600229550,0.0003945071,9.7941678911,0.0079469837,0.0001978275,0.0001064393,-0.0000106963
557661.3700229550,-0.0024079108,9.7927874352,0.0001911955,-0.0008878354,0.0001064393,0.0000109989
557661.3800229550,-0.0015611385,9.7906601846,-0.0094255083,0.0008492253,0.0000955887,0.0000109989
557661.3900229550,0.0007362469,9.7953869961,0.0131303361,-0.0006489896,0.0000955887,0.0000109989
557661.4000229550,0.0001015572,9.7911254072,-0.0111168624,-0.0000735882,0.0001172899,-0.0000215439
557661.4100229550,-0.0020949064,9.7929407266,0.0012562961,0.0006646626,0.0000847381,0.0000001513
557661.4200229550,-0.0023523397,9.7941567055,0.0078173112,-0.0011049680,0.0001389912,0.0000001513
557661.4300229551,-0.0002084727,9.7902094812,-0.0121823118,0.0007189457,0.0000847381,0.0000001513
557661.4400229550,-0.0001851125,9.7947736228,0.0120701011,-0.0002038678,0.0001064393,0.0000001513
557661.4500229550,-0.0009264853,9.7921862189,-0.0056171417,-0.0006272763,0.0001064393,0.0000001513
557661.4600229550,-0.0021407294,9.7915709007,-0.0051497415,0.0009252217,0.0000955887,0.0000001513
557661.4700229550,-0.0001881157,9.7952312730,0.0119178007,-0.0009529752,0.0001498418,-0.0000215439
557661.4800229550,0.0000887199,9.7906686597,-0.0129471888,0.0003172504,0.0000955887,0.0000001513
557661.4900229550,-0.0014377252,9.7943129841,0.0078097685,0.0002846805,0.0000847381,0.0000109989
557661.5000229550,-0.0019447511,9.7935514595,0.0012553064,-0.0009964017,0.0001389912,0.0000001513
557661.5100229550,-0.0005037658,9.7905126596,-0.0108070470,0.0009252217,0.0000738874,0.0000218465
557661.5200229550,0.0005861490,9.7953862319,0.0134366243,-0.0005947064,0.0001389912,0.0000001513
557661.5300229550,-0.0009643737,9.7909684339,-0.0109555413,-0.0001930112,0.0001064393,-0.0000215439
557661.5400229550,-0.0020924694,9.7929405877,0.0015613156,0.0006646626,0.0000847381,0.0000001513
557661.5500229551,-0.0006768641,9.7944687068,0.0076509849,-0.0010615415,0.0001172899,0.0000001513
557661.5600229549,0.0007030813,9.7902134412,-0.0126474535,0.0007080891,0.0000847381,0.0000001513
557661.5700229550,-0.0001984874,9.7950793710,0.0105451431,-0.0002147244,0.0000955887,0.0000001513
557661.5800229550,-0.0018404476,9.7924873822,-0.0053043702,-0.0006164197,0.0001389912,0.0000109989
557661.5900229550,-0.0009034197,9.7912699464,-0.0031774041,0.0009035084,0.0000847381,0.0000109989
557661.6000229550,-0.0006475339,9.7953819935,0.0117691669,-0.0009529752,0.0001389912,-0.0000106963
557661.6100229550,-0.0006672959,9.7902076748,-0.0123310153,0.0003498203,0.0001064393,-0.0000106963
557661.6200229550,-0.0011296234,9.7941615689,0.0081121808,0.0002303974,0.0000955887,0.0000001513
557661.6300229550,-0.0004286699,9.7921858033,-0.0005881259,-0.0009312620,0.0001064393,0.0000109989
557661.6400229550,-0.0007978117,9.7911207528,-0.0091266232,0.0008817951,0.0000955887,0.0000001513
557661.6500229550,-0.0012461120,9.7952263405,0.0131467599,-0.0006272763,0.0000955887,-0.0000106963
557661.6600229550,-0.0015720764,9.7909657939,-0.0106454468,-0.0000953015,0.0001064393,0.0000001513
557661.6700229550,-0.0008672874,9.7932502966,0.0023138540,0.0006429493,0.0001064393,0.0000001513
557661.6800229551,-0.0008379859,9.7938585988,0.0062793868,-0.0010506849,0.0001172899,-0.0000215439
557661.6900229550,-0.0005226670,9.7903612436,-0.0132472729,0.0007189457,0.0000955887,0.0000001513
557661.7000229550,-0.0010985085,9.7946172748,0.0122301536,-0.0002255810,0.0000955887,0.0000109989
557661.7100229550,-0.0016934103,9.7923358278,-0.0060682575,-0.0005729932,0.0001064393,0.0000001513
557661.7200229550,0.0000081629,9.7915788908,-0.0034898965,0.0008926518,0.0000847381,0.0000109989
557661.7300229550,0.0002621493,9.7949285811,0.0108462866,-0.0009746885,0.0001389912,-0.0000106963
557661.7400229550,-0.0009790818,9.7900543140,-0.0132436062,0.0004149601,0.0001172899,0.0000001513
557661.7500229550,-0.0012949383,9.7943141649,0.0065884217,0.0001761142,0.0000847381,0.0000001513
557661.7600229550,-0.0013468539,9.7929446862,-0.0005801647,-0.0009204053,0.0001064393,0.0000109989
557661.7700229550,-0.0000162933,9.7906653263,-0.0069980395,0.0009360783,0.0000847381,0.0000109989
557661.7800229550,-0.0001801811,9.7953833138,0.0129854387,-0.0007141294,0.0001064393,0.0000001513
557661.7900229550,-0.0011279039,9.7906634492,-0.0124795096,-0.0000627316,0.0001064393,0.0000001513
557661.8000229551,-0.0017745909,9.7930936014,0.0032364552,0.0006212360,0.0000847381,0.0000001513
557661.8100229549,0.0000748439,9.7944724582,0.0062720534,-0.0010615415,0.0001389912,-0.0000106963
557661.8200229550,-0.0000620016,9.7905154381,-0.0127934801,0.0007840855,0.0000955887,0.0000001513
557661.8300229550,-0.0008013160,9.7950764533,0.0114652766,-0.0003232907,0.0001064393,-0.0000106963
557661.8400229550,-0.0013835238,9.7917268318,-0.0057660545,-0.0005729932,0.0001064393,0.0000001513
557661.8500229550,0.0003193252,9.7915797941,-0.0027298852,0.0009143650,0.0000847381,0.0000001513
557661.8600229550,-0.0000471996,9.7947750813,0.0102387153,-0.0009746885,0.0001389912,-0.0000106963
557661.8700229550,-0.0020656701,9.7905084899,-0.0153696524,0.0003606769,0.0000847381,0.0000001513
557661.8800229550,-0.0014322276,9.7944651638,0.0085723871,0.0002955372,0.0000847381,0.0000001513
557661.8900229550,-0.0008587292,9.7935547949,0.0035340716,-0.0010506849,0.0001172899,0.0000001513
557661.9000229550,-0.0003585419,9.7905137015,-0.0117233743,0.0009686482,0.0000955887,0.0000001513
557661.9100229550,-0.0003303077,9.7950775653,0.0131390777,-0.0005621366,0.0001064393,-0.0000106963
557661.9200229550,-0.0018582450,9.7911159593,-0.0082026834,-0.0003341473,0.0001389912,0.0000001513
557661.9300229551,-0.0013469686,9.7917247486,-0.0011907618,0.0008275120,0.0000955887,0.0000001513
557661.9400229550,-0.0005146384,9.7938588078,0.0085644956,-0.0010398282,0.0001172899,-0.0000106963
557661.9500229550,0.0000905046,9.7902110790,-0.0129473981,0.0005235264,0.0000955887,0.0000001513
557661.9600229550,-0.0012687548,9.7941601798,0.0097910569,0.0000241214,0.0001064393,0.0000001513
557661.9700229550,-0.0016531709,9.7926385207,-0.0008827862,-0.0008335523,0.0001389912,-0.0000106963
557661.9800229550,-0.0006336866,9.7912732107,-0.0076027246,0.0009686482,0.0000847381,0.0000109989
557661.9900229550,-0.0004882828,9.7955347291,0.0126830264,-0.0007901258,0.0001064393,-0.0000106963
557662.0000229550,-0.0005111055,9.7902080918,-0.0118747548,0.0000349781,0.0001064393,0.0000001513
557662.0100229550,-0.0011571115,9.7934006702,0.0042990881,0.0005669529,0.0000738874,0.0000001513
557662.0200229550,-0.0013034965,9.7940096666,0.0053682042,-0.0010941114,0.0001172899,0.0000001513
557662.0300229550,-0.0009754263,9.7900541057,-0.0127860769,0.0007515156,0.0001064393,0.0000001513
557662.0400229550,-0.0006414413,9.7953816463,0.0125317157,-0.0003124341,0.0001064393,0.0000001513
557662.0500229551,-0.0016934963,9.7914208746,-0.0065262053,-0.0005512799,0.0001172899,-0.0000106963
557662.0600229549,-0.0004549395,9.7914248352,-0.0042487089,0.0009360783,0.0000738874,0.0000001513
557662.0700229550,-0.0012662604,9.7947700097,0.0104013750,-0.0010072584,0.0001172899,-0.0000106963
557662.0800229550,-0.0005299493,9.7906666447,-0.0140096822,0.0003281071,0.0001172899,0.0000001513
557662.0900229550,-0.0003554734,9.7930965902,0.0090204074,0.0003063938,0.0000955887,0.0000001513
557662.1000229550,-0.0019435039,9.7938563745,0.0015604654,-0.0010072584,0.0001172899,-0.0000106963
557662.1100229550,-0.0014263149,9.7902043401,-0.0118671424,0.0009143650,0.0000847381,0.0000109989
557662.1200229550,-0.0003278706,9.7950774264,0.0134440972,-0.0005621366,0.0001172899,0.0000109989
557662.1300229550,-0.0004909284,9.7909694070,-0.0089767206,-0.0002798642,0.0001064393,0.0000001513
557662.1400229550,-0.0007336537,9.7930995059,-0.0001276406,0.0008057987,0.0000955887,0.0000001513
557662.1500229550,-0.0017330756,9.7940061936,0.0088797348,-0.0010941114,0.0001172899,0.0000001513
557662.1600229550,-0.0005232905,9.7902087862,-0.0133998524,0.0005778095,0.0000738874,0.0000109989
557662.1700229550,-0.0005066465,9.7946208175,0.0099374323,0.0000241214,0.0001064393,0.0000001513
557662.1800229551,-0.0016714772,9.7923345779,-0.0033230819,-0.0008444089,0.0001389912,0.0000109989
557662.1900229550,-0.0009326639,9.7912716129,-0.0068376383,0.0009795048,0.0000955887,0.0000001513
557662.2000229550,-0.0009337598,9.7949221901,0.0139066317,-0.0008009824,0.0001064393,-0.0000106963
557662.2100229550,-0.0005122953,9.7905131456,-0.0118746153,0.0000675479,0.0000955887,0.0000001513
557662.2200229550,-0.0011668309,9.7937062101,0.0032316593,0.0004909565,0.0000955887,0.0000001513
557662.2300229550,-0.0010105831,9.7943165959,0.0039932184,-0.0010832548,0.0001389912,0.0000001513
557662.2400229550,-0.0002084727,9.7902094812,-0.0121823118,0.0008166554,0.0000847381,0.0000001513
557662.2500229550,-0.0004791584,9.7953817161,0.0137505250,-0.0002907208,0.0001064393,0.0000001513
557662.2600229550,-0.0018624381,9.7918786633,-0.0083548444,-0.0005404233,0.0001498418,0.0000109989
557662.2700229550,-0.0012175567,9.7920316776,-0.0039370666,0.0008926518,0.0000847381,0.0000001513
557662.2800229550,-0.0008000975,9.7950763838,0.0116177863,-0.0010072584,0.0001172899,0.0000109989
557662.2900229560,-0.0006740407,9.7897505801,-0.0133987929,0.0004041035,0.0000955887,0.0000109989
557662.3000229560,-0.0009880264,9.7944678035,0.0068909735,0.0001544010,0.0001064393,-0.0000106963
557662.3100229560,-0.0010399993,9.7924883560,-0.0005829114,-0.0009204053,0.0001389912,0.0000109989
557662.3200229560,-0.0009362907,9.7915768056,-0.0071425183,0.0009360783,0.0000738874,0.0000001513
557662.3300229560,-0.0007878837,9.7953806739,0.0132955332,-0.0006598462,0.0001389912,-0.0000106963
557662.3400229560,-0.0009747454,9.7908165319,-0.0123281989,-0.0001278714,0.0001064393,0.0000001513
557662.3500229560,-0.0000997675,9.7929481608,0.0027649001,0.0006972324,0.0000738874,0.0000001513
557662.3600229560,-0.0017336705,9.7941587206,0.0088798046,-0.0011266813,0.0001606924,0.0000001513
557662.3700229560,-0.0008369186,9.7899030373,-0.0146175325,0.0006755192,0.0000738874,0.0000001513
557662.3800229559,-0.0011191944,9.7949234396,0.0097901370,-0.0001495846,0.0001064393,0.0000109989
557662.3900229560,-0.0009057994,9.7918800541,-0.0031771251,-0.0006381330,0.0001389912,-0.0000106963
557662.4000229560,-0.0012108692,9.7918788035,-0.0031745876,0.0009252217,0.0000738874,0.0000001513
557662.4100229560,-0.0003619602,9.7953843551,0.0093264733,-0.0009095487,0.0001064393,-0.0000106963
557662.4200229560,-0.0002218762,9.7902102450,-0.0138599191,0.0002629673,0.0000955887,0.0000001513
557662.4300229560,-0.0009777121,9.7940097367,0.0079583326,0.0002629673,0.0000955887,0.0000001513
557662.4400229560,-0.0011741706,9.7934016424,0.0021639515,-0.0009529752,0.0001389912,-0.0000106963
557662.4500229560,-0.0011096263,9.7906624076,-0.0101918633,0.0009360783,0.0000847381,0.0000001513
557662.4600229560,-0.0004962748,9.7947727194,0.0113100898,-0.0006489896,0.0000955887,-0.0000106963
557662.4700229560,-0.0008033380,9.7906635887,-0.0100418910,-0.0001387280,0.0001389912,0.0000001513
557662.4800229560,-0.0010168190,9.7927920211,0.0024674232,0.0006646626,0.0000955887,0.0000001513
557662.4900229560,-0.0011442168,9.7944673865,0.0064347130,-0.0010615415,0.0001172899,0.0000001513
557662.5000229561,-0.0012884308,9.7899008143,-0.0138511775,0.0006755192,0.0001064393,0.0000109989
557662.5100229559,-0.0001833277,9.7943160421,0.0120698919,-0.0002364377,0.0000847381,0.0000109989
557662.5200229560,-0.0015195945,9.7918777613,-0.0036295794,-0.0006164197,0.0001172899,0.0000001513
557662.5300229560,-0.0004616556,9.7912727249,-0.0051638372,0.0009360783,0.0000847381,0.0000001513
557662.5400229560,-0.0005047470,9.7953831743,0.0105478201,-0.0009312620,0.0001172899,0.0000001513
557662.5500229560,-0.0002230948,9.7902103145,-0.0140124289,0.0002629673,0.0001064393,-0.0000106963
557662.5600229560,-0.0011302183,9.7943140958,0.0081122506,0.0002846805,0.0001064393,0.0000001513
557662.5700229560,-0.0017837153,9.7932466143,0.0021689567,-0.0009638318,0.0001064393,0.0000218465
557662.5800229560,-0.0000473795,9.7905146048,-0.0109633630,0.0009252217,0.0001064393,0.0000001513
557662.5900229560,-0.0000331151,9.7955367438,0.0123742007,-0.0006272763,0.0001064393,-0.0000106963
557662.6000229560,-0.0015641704,9.7908128504,-0.0097304580,-0.0001604413,0.0000955887,0.0000001513
557662.6100229560,-0.0011791307,9.7924869669,0.0010959646,0.0006972324,0.0000955887,0.0000001513
557662.6200229560,0.0000808218,9.7932521734,0.0064240051,-0.0010723981,0.0001389912,-0.0000106963
557662.6300229559,-0.0008278228,9.7894450399,-0.0137026832,0.0006538059,0.0000847381,0.0000001513
557662.6400229560,-0.0018550618,9.7949187856,0.0131516953,-0.0000627316,0.0001172899,0.0000001513
557662.6500229560,-0.0012193414,9.7924892584,-0.0039368574,-0.0007249860,0.0001172899,0.0000109989
557662.6600229560,0.0005895959,9.7908205627,-0.0074605740,0.0009686482,0.0000847381,0.0000001513
557662.6700229560,0.0005763436,9.7947768186,0.0119112477,-0.0008769788,0.0001172899,-0.0000323915
557662.6800229560,-0.0020376157,9.7908118772,-0.0117092787,0.0001326877,0.0001064393,-0.0000106963
557662.6900229560,-0.0020576702,9.7937010697,0.0062894669,0.0004366733,0.0000955887,0.0000001513
557662.7000229560,0.0000564803,9.7935585465,0.0035264592,-0.0010506849,0.0001498418,0.0000109989
557662.7100229560,0.0004028281,9.7896019441,-0.0123401755,0.0008817951,0.0000738874,0.0000001513
557662.7200229560,-0.0018495929,9.7947659809,0.0137616646,-0.0004861401,0.0001064393,-0.0000106963
557662.7300229560,-0.0026282019,9.7914182339,-0.0089587490,-0.0003558606,0.0001389912,0.0000001513
557662.7400229560,0.0000277163,9.7921877486,-0.0007444419,0.0008057987,0.0000847381,0.0000001513
557662.7500229561,0.0008727978,9.7938636021,0.0103831941,-0.0010615415,0.0001389912,0.0000001513
557662.7600229559,-0.0005209396,9.7892936941,-0.0135527807,0.0005018131,0.0000847381,-0.0000106963
557662.7700229560,-0.0021900854,9.7938517909,0.0088834713,0.0000458347,0.0000955887,0.0000109989
557662.7800229560,-0.0008965889,9.7926419943,-0.0016516787,-0.0008444089,0.0001498418,0.0000109989
557662.7900229560,0.0005799052,9.7914310870,-0.0083753535,0.0009686482,0.0000738874,0.0000001513
557662.8000229560,-0.0010942294,9.7947695240,0.0128402624,-0.0007684125,0.0001172899,0.0000001513
557662.8100229560,-0.0015776027,9.7905086298,-0.0115607146,-0.0000301617,0.0001172899,0.0000001513
557662.8200229560,-0.0010106978,9.7930966583,0.0033826213,0.0006212360,0.0000955887,0.0000001513
557662.8300229560,-0.0006915148,9.7941645557,0.0056682185,-0.0011375379,0.0001064393,0.0000001513
557662.8400229560,-0.0002255604,9.7899054689,-0.0144700977,0.0007189457,0.0001172899,0.0000001513
557662.8500229560,-0.0012510434,9.7946166495,0.0122314223,-0.0001495846,0.0000847381,0.0000001513
557662.8600229560,-0.0013785638,9.7926415072,-0.0046980677,-0.0007032727,0.0001064393,0.0000109989
557662.8700229560,-0.0012358916,9.7914227504,-0.0065300115,0.0009903614,0.0001064393,0.0000001513
557662.8800229559,0.0005909657,9.7947759854,0.0137413648,-0.0009312620,0.0001172899,0.0000001513
557662.8900229560,-0.0005190114,9.7903610353,-0.0127897436,0.0001761142,0.0000955887,0.0000109989
557662.9000229560,-0.0020704789,9.7935493066,0.0046117898,0.0003823902,0.0000955887,0.0000001513
557662.9100229560,-0.0008623847,9.7935550032,0.0030765423,-0.0010181150,0.0001064393,0.0000109989
557662.9200229560,-0.0011168800,9.7912727930,-0.0108016233,0.0008709385,0.0000847381,0.0000001513
557662.9300229560,-0.0001886533,9.7959937687,0.0122231690,-0.0004535703,0.0001172899,-0.0000323915
557662.9400229560,-0.0018545895,9.7911157510,-0.0077451542,-0.0003341473,0.0001172899,0.0000001513
557662.9500229560,-0.0009020865,9.7924898146,-0.0024142973,0.0008166554,0.0000847381,0.0000109989
557662.9600229560,-0.0000520450,9.7950803435,0.0097813255,-0.0010832548,0.0001498418,0.0000001513
557662.9700229560,-0.0009833610,9.7899020648,-0.0138537150,0.0005343830,0.0000847381,0.0000001513
557662.9800229560,-0.0005060802,9.7941633062,0.0097847132,0.0000458347,0.0000955887,-0.0000215439
557662.9900229560,-0.0015067285,9.7926394932,-0.0016466038,-0.0008335523,0.0001172899,0.0000001513
557663.0000229561,-0.0006300884,9.7906630336,-0.0074504938,0.0009903614,0.0000955887,0.0000001513
557663.0100229559,-0.0001862736,9.7953836610,0.0122228899,-0.0007901258,0.0001064393,-0.0000106963
557663.0200229560,-0.0003652293,9.7906665756,-0.0124858533,-0.0000301617,0.0001172899,0.0000109989
557663.0300229560,-0.0007128817,9.7937082943,0.0027703238,0.0005778095,0.0000847381,-0.0000106963
557663.0400229560,-0.0016018216,9.7944655107,0.0064385192,-0.0010941114,0.0001172899,0.0000218465
557663.0500229560,-0.0005196350,9.7902085778,-0.0129423231,0.0008166554,0.0000955887,0.0000109989
557663.0600229560,-0.0004895300,9.7952298141,0.0123778674,-0.0002798642,0.0001064393,0.0000001513
557663.0700229560,-0.0006166275,9.7912722385,-0.0054675879,-0.0005729932,0.0001172899,-0.0000106963
557663.0800229560,-0.0009161710,9.7917281521,-0.0045497827,0.0009143650,0.0000955887,0.0000001513
557663.0900229560,-0.0009568828,9.7952284938,0.0111615956,-0.0009746885,0.0001064393,0.0000001513
557663.1000229560,-0.0006782338,9.7905132842,-0.0135509539,0.0002846805,0.0001064393,0.0000109989
557663.1100229560,-0.0005219208,9.7941642088,0.0078020864,0.0002738239,0.0000847381,0.0000001513
557663.1200229560,-0.0011777975,9.7937068351,0.0018590715,-0.0009312620,0.0000955887,0.0000001513
557663.1300229559,-0.0012614803,9.7914242086,-0.0097327165,0.0009252217,0.0001172899,0.0000001513
557663.1400229560,0.0002762338,9.7956902435,0.0129817720,-0.0006272763,0.0001172899,0.0000001513
557663.1500229560,-0.0003573234,9.7905136320,-0.0115708645,-0.0001821545,0.0001172899,0.0000001513
557663.1600229560,-0.0013279240,9.7934010865,0.0020127105,0.0006538059,0.0001064393,0.0000001513
557663.1700229560,-0.0023468421,9.7943088852,0.0085799298,-0.0011049680,0.0001389912,0.0000001513
557663.1800229560,-0.0006824842,9.7906660194,-0.0140084134,0.0007080891,0.0000738874,0.0000109989
557663.1900229560,0.0002639627,9.7947759847,0.0109987266,-0.0001387280,0.0001172899,0.0000001513
557663.2000229560,-0.0012229969,9.7924894667,-0.0043943866,-0.0006598462,0.0001172899,-0.0000106963
557663.2100229560,-0.0019894704,9.7909616266,-0.0056088186,0.0009795048,0.0000738874,0.0000001513
557663.2200229560,-0.0026317349,9.7950689500,0.0114805014,-0.0009529752,0.0001389912,0.0000109989
557663.2300229560,0.0006963938,9.7903663153,-0.0134099325,0.0001435444,0.0000738874,0.0000001513
557663.2400229560,0.0002291636,9.7940155027,0.0062705753,0.0004583866,0.0000955887,-0.0000106963
557663.2500229561,-0.0020692604,9.7935492372,0.0047642996,-0.0010723981,0.0001498418,0.0000001513
557663.2600229559,-0.0022029593,9.7906594889,-0.0133856870,0.0008817951,0.0000738874,0.0000001513
557663.2700229560,0.0005861490,9.7953862319,0.0134366243,-0.0003341473,0.0001064393,0.0000218465
557663.2800229560,-0.0000234896,9.7918856806,-0.0073025010,-0.0005621366,0.0001389912,0.0000001513
557663.2900229560,-0.0012108692,9.7918788035,-0.0031745876,0.0009360783,0.0000847381,0.0000001513
557663.3000229560,-0.0018690890,9.7947670919,0.0113215085,-0.0010181150,0.0001064393,0.0000109989
557663.3100229560,-0.0005324437,9.7900568148,-0.0146200002,0.0002738239,0.0001064393,0.0000109989
557663.3200229560,0.0003956970,9.7938628372,0.0079468442,0.0003063938,0.0001064393,0.0000001513
557663.3300229560,-0.0011711100,9.7935539610,0.0026215505,-0.0009529752,0.0001172899,-0.0000106963
557663.3400229560,-0.0023415244,9.7902005885,-0.0118595300,0.0009252217,-0.0001105732,0.0000001513
557663.3500229560,-0.0006536551,9.7950773563,0.0108539688,-0.0005838498,-0.0007182081,0.0000001513
557663.3600229570,-0.0021766897,9.7914204569,-0.0097251040,-0.0003232907,-0.0029317353,0.0000001513
557663.3700229570,-0.0031778964,9.7927847254,-0.0007175194,0.0007298023,-0.0047871919,0.0000001513
557663.3800229570,-0.0017610439,9.7946177595,0.0056773089,-0.0011049680,-0.0056226899,0.0000001513
557663.3900229570,-0.0006800759,9.7903608961,-0.0138560432,0.0006103794,-0.0066426485,0.0000001513
557663.4000229570,-0.0018892087,9.7946157455,0.0087287728,-0.0001278714,-0.0076192046,0.0000001513
557663.4100229570,-0.0012084035,9.7921836490,-0.0027169188,-0.0007684125,-0.0078036652,0.0000001513
557663.4200229570,-0.0016965569,9.7912685560,-0.0069838044,0.0009686482,-0.0092359475,0.0000001513
557663.4300229570,-0.0028079876,9.7955271553,0.0087368038,-0.0009529752,-0.0098110306,0.0000001513
557663.4400229570,-0.0011169373,9.7906628242,-0.0111069218,0.0000241214,-0.0106248273,0.0000001513
557663.4500229571,-0.0006855083,9.7932492553,0.0059728195,0.0004800999,-0.0115905328,0.0000218465
557663.4600229569,-0.0010264524,9.7940125142,0.0018579423,-0.0011049680,-0.0121873171,-0.0000106963
557663.4700229570,-0.0032671341,9.7897399504,-0.0133772244,0.0007949421,-0.0134134376,-0.0000106963
557663.4800229570,-0.0024688283,9.7952214772,0.0128518903,-0.0005295667,-0.0144333962,0.0000001513
557663.4900229570,-0.0003176502,9.7912738363,-0.0062326742,-0.0004969968,-0.0149759273,0.0000109989
557663.5000229570,0.0000081916,9.7918838752,-0.0033372473,0.0008166554,-0.0161477947,0.0000001513
557663.5100229570,-0.0026622549,9.7944607171,0.0073624589,-0.0011375379,-0.0170049939,0.0000001513
557663.5200229570,-0.0025123369,9.7902010048,-0.0141459076,0.0003823902,-0.0176560313,0.0000109989
557663.5300229570,-0.0015829490,9.7943119422,0.0087260958,0.0001326877,-0.0188821518,0.0000109989
557663.5400229570,0.0000241182,9.7927979257,-0.0008966726,-0.0010072584,-0.0194680855,0.0000001513
557663.5500229570,-0.0011187507,9.7908154206,-0.0112593618,0.0008817951,-0.0205422972,0.0000001513
557663.5600229570,-0.0036842909,9.7946062284,0.0131667806,-0.0008009824,-0.0214103471,0.0000001513
557663.5700229571,-0.0024879381,9.7905046004,-0.0109430632,-0.0002364377,-0.0220288326,0.0000326941
557663.5800229569,-0.0004309922,9.7934058798,-0.0002825483,0.0005669529,-0.0231898493,0.0000001513
557663.5900229570,-0.0006908912,9.7943170132,0.0058207980,-0.0011375379,-0.0239927954,0.0000001513
557663.6000229570,-0.0032634500,9.7900447265,-0.0127670458,0.0005126697,-0.0245461772,0.0000218465
557663.6100229570,-0.0020338090,9.7947671610,0.0097976796,-0.0002038678,-0.0259676089,0.0000109989
557663.6200229570,0.0006226103,9.7920386254,-0.0027322134,-0.0008335523,-0.0264775882,0.0000109989
557663.6300229570,-0.0007879776,9.7920351505,-0.0074485973,0.0007949421,-0.0273890406,0.0000001513
557663.6400229570,-0.0021893471,9.7952241860,0.0096466479,-0.0010072584,-0.0289298291,0.0000001513
557663.6500229570,-0.0018754188,9.7898969938,-0.0109484171,0.0000784046,-0.0289949329,0.0000109989
557663.6600229570,-0.0017702544,9.7938558193,0.0041518626,0.0003172504,-0.0297978790,0.0000001513
557663.6700229570,-0.0004205919,9.7938627661,0.0012427585,-0.0011701078,-0.0310457007,0.0000001513
557663.6800229570,-0.0008015245,9.7905109924,-0.0098894510,0.0007080891,-0.0313712194,0.0000001513
557663.6900229570,-0.0036970996,9.7944544654,0.0114891036,-0.0005838498,-0.0327383980,0.0000109989
557663.7000229571,-0.0018704301,9.7911166537,-0.0097277810,-0.0005512799,-0.0338560122,0.0000218465
557663.7100229569,0.0013938431,9.7923462502,-0.0015183395,0.0006755192,-0.0338994147,0.0000001513
557663.7200229570,-0.0032705524,9.7946106040,0.0076726232,-0.0011918211,-0.0356355144,0.0000001513
557663.7300229570,-0.0015776313,9.7902036454,-0.0117133639,0.0003498203,-0.0363191037,0.0000109989
557663.7400229570,-0.0015805407,9.7940068189,0.0088784661,-0.0000627316,-0.0369050374,0.0000218465
557663.7500229570,-0.0018428559,9.7927925055,-0.0054567405,-0.0010181150,-0.0382396641,0.0000109989
557663.7600229570,-0.0003189261,9.7906639369,-0.0066904825,0.0007623722,-0.0384566765,0.0000109989
557663.7700229570,-0.0021759722,9.7949184377,0.0111716059,-0.0009855451,-0.0395634401,0.0000218465
557663.7800229570,-0.0015836665,9.7908139614,-0.0121706141,-0.0000735882,-0.0408872162,0.0000109989
557663.7900229570,-0.0005549352,9.7929461461,0.0030737258,0.0002955372,-0.0411367805,0.0000109989
557663.8000229570,-0.0017806261,9.7937039173,0.0027792050,-0.0012026777,-0.0423086479,0.0000109989
557663.8100229570,-0.0015733235,9.7906608790,-0.0109506058,0.0006429493,-0.0433720090,0.0000326941
557663.8200229571,-0.0004920244,9.7946199842,0.0117675493,-0.0005512799,-0.0434696646,0.0000218465
557663.8300229569,-0.0030882723,9.7911115126,-0.0094126116,-0.0007032727,-0.0451515112,0.0000218465
557663.8400229570,-0.0012102456,9.7920312610,-0.0030220081,0.0006429493,-0.0457591462,0.0000001513
557663.8500229570,-0.0009612479,9.7941612914,0.0100935390,-0.0011809644,-0.0461931711,0.0000109989
557663.8600229570,-0.0020498581,9.7902026028,-0.0135396748,0.0002195408,-0.0477990634,0.0000218465
557663.8700229570,-0.0009886500,9.7943153460,0.0067383940,0.0000024082,-0.0483090427,0.0000001513
557663.8800229570,-0.0010423790,9.7930984637,-0.0005826324,-0.0011592512,-0.0484283995,0.0000001513
557663.8900229570,-0.0020308709,9.7912689719,-0.0106415011,0.0006972324,-0.0506202255,0.0000218465
557663.9000229570,-0.0006408464,9.7952291194,0.0125316459,-0.0009529752,-0.0508263873,0.0000109989
557663.9100229570,-0.0024940019,9.7908099320,-0.0115529627,-0.0002690076,-0.0517703916,0.0000109989
557663.9200229570,-0.0024024419,9.7926346305,0.0008011648,0.0004583866,-0.0529097070,0.0000218465
557663.9300229570,-0.0010008351,9.7943160404,0.0052132965,-0.0013438139,-0.0529205576,0.0000109989
557663.9400229570,-0.0012920576,9.7902060070,-0.0141560575,0.0005126697,-0.0545047487,0.0000109989
557663.9500229571,-0.0007977178,9.7944662762,0.0116175073,-0.0004427136,-0.0554270517,0.0000001513
557663.9600229569,-0.0032175982,9.7917195368,-0.0062083589,-0.0008769788,-0.0560455372,0.0000218465
557663.9700229570,-0.0009314167,9.7915765279,-0.0065324793,0.0006863758,-0.0572065539,0.0000326941
557663.9800229570,-0.0008068136,9.7949242736,0.0107026580,-0.0012026777,-0.0579335457,0.0000001513
557663.9900229570,-0.0018936964,9.7898980354,-0.0132360635,0.0000132648,-0.0589101018,0.0000218465
557664.0000229570,-0.0005353531,9.7938599883,0.0059718298,0.0001435444,-0.0595285873,0.0000218465
557664.0100229570,-0.0020997230,9.7935509731,0.0009515556,-0.0013112440,-0.0604834422,0.0000109989
557664.0200229570,-0.0014342209,9.7903572837,-0.0127821312,0.0006538059,-0.0612863884,0.0000218465
557664.0300229570,-0.0006353201,9.7956862835,0.0134469137,-0.0008118390,-0.0624040026,0.0000218465
557664.0400229570,-0.0015452405,9.7912692507,-0.0071375829,-0.0006164197,-0.0630116375,0.0000218465
557664.0500229570,-0.0028856926,9.7920242441,-0.0027030325,0.0005669529,-0.0641509529,0.0000109989
557664.0600229570,-0.0005279273,9.7950795092,0.0074974854,-0.0013438139,-0.0647151854,0.0000109989
557664.0700229571,-0.0003646631,9.7902090643,-0.0126385723,0.0002955372,-0.0654964303,0.0000109989
557664.0800229569,-0.0023535009,9.7947667438,0.0079701000,-0.0002255810,-0.0667659532,0.0000326941
557664.0900229570,-0.0016647324,9.7927916726,-0.0022553043,-0.0011483945,-0.0675037956,0.0000218465
557664.1000229570,-0.0012487289,9.7909660029,-0.0083603379,0.0006429493,-0.0681873849,0.0000218465
557664.1100229570,-0.0009647601,9.7956864217,0.0103992560,-0.0010832548,-0.0691639410,0.0000109989
557664.1200229570,-0.0006574905,9.7908170881,-0.0108056387,-0.0003015774,-0.0699994390,0.0000001513
557664.1300229570,-0.0011833238,9.7932496709,0.0009438037,0.0002846805,-0.0708240864,0.0000326941
557664.1400229570,-0.0023858917,9.7937011385,0.0033943190,-0.0013438139,-0.0721695637,0.0000218465
557664.1500229570,-0.0003517971,9.7909707961,-0.0106555967,0.0004258167,-0.0723323231,0.0000326941
557664.1600229570,-0.0005042094,9.7946206786,0.0102424518,-0.0006598462,-0.0736126966,0.0000326941
557664.1700229570,-0.0017086847,9.7918792191,-0.0082036034,-0.0007358426,-0.0745892527,0.0000218465
557664.1800229570,-0.0009020865,9.7924898146,-0.0024142973,0.0005018131,-0.0747303108,0.0000218465
557664.1900229570,-0.0017452320,9.7943118724,0.0075072865,-0.0013329572,-0.0763253525,0.0000218465
557664.2000229571,-0.0011303696,9.7903586037,-0.0129371784,0.0001761142,-0.0771499999,0.0000218465
557664.2100229569,-0.0003657017,9.7944696102,0.0084109962,-0.0002581509,-0.0777033817,0.0000218465
557664.2200229570,-0.0021186816,9.7927895884,-0.0017939688,-0.0011809644,-0.0790597096,0.0000435417
557664.2300229570,-0.0018582737,9.7908109749,-0.0083553327,0.0005886662,-0.0796890458,0.0000435417
557664.2400229570,0.0002658622,9.7955383415,0.0116091144,-0.0011701078,-0.0800145645,0.0000218465
557664.2500229570,-0.0014311890,9.7902046179,-0.0124771814,-0.0002690076,-0.0814142949,0.0000326941
557664.2600229570,-0.0016225649,9.7941617067,0.0036932041,0.0001326877,-0.0820870336,0.0000435417
557664.2700229570,-0.0016214324,9.7932466841,0.0033877660,-0.0013763838,-0.0831178428,0.0000218465
557664.2800229570,-0.0014172478,9.7894413583,-0.0111049424,0.0004366733,-0.0842788595,0.0000218465
557664.2900229570,0.0001133272,9.7955377163,0.0116103832,-0.0007249860,-0.0846803326,0.0000218465
557664.3000229570,-0.0021700023,9.7912675828,-0.0089626250,-0.0008552655,-0.0859498555,0.0000218465
557664.3100229570,-0.0025824075,9.7924830754,-0.0027053607,0.0005126697,-0.0865683411,0.0000218465
557664.3200229571,-0.0005053706,9.7952307168,0.0103952405,-0.0013763838,-0.0872302291,0.0000435417
557664.3300229569,-0.0008363523,9.7894455260,-0.0147702515,0.0000675479,-0.0887710176,0.0000326941
557664.3400229570,-0.0000673767,9.7940137661,0.0073406811,-0.0002147244,-0.0892267438,0.0000218465
557664.3500229570,-0.0021198714,9.7930946423,-0.0017938293,-0.0013221006,-0.0901273456,0.0000218465
557664.3600229570,-0.0015611098,9.7909651690,-0.0092728590,0.0005560963,-0.0913643166,0.0000435417
557664.3700229570,-0.0000301119,9.7950790936,0.0125265012,-0.0010723981,-0.0914185698,0.0000218465
557664.3800229570,-0.0006641493,9.7912749466,-0.0114154685,-0.0005512799,-0.0925144827,0.0000109989
557664.3900229570,-0.0022620634,9.7929409346,-0.0005725523,0.0003063938,-0.0940444206,0.0000435417
557664.4000229570,-0.0015896938,9.7938548475,0.0076583183,-0.0014958067,-0.0940335700,0.0000435417
557664.4100229570,-0.0009851170,9.7906646300,-0.0137008564,0.0002629673,-0.0953898979,0.0000326941
557664.4200229570,-0.0005109542,9.7941635839,0.0091746742,-0.0005729932,-0.0963881553,0.0000218465
557664.4300229580,-0.0013767503,9.7924889109,-0.0045456277,-0.0011049680,-0.0967570765,0.0000326941
557664.4400229580,-0.0022963823,9.7908079880,-0.0059113704,0.0005126697,-0.0981134044,0.0000326941
557664.4500229580,-0.0006566870,9.7952300221,0.0105490190,-0.0013546705,-0.0988078443,0.0000326941
557664.4600229580,0.0000978443,9.7905156467,-0.0118796902,-0.0001821545,-0.0993829274,0.0000326941
557664.4700229580,-0.0016159061,9.7937038482,0.0043030338,-0.0000084485,-0.1007826578,0.0000326941
557664.4800229580,-0.0020948490,9.7935506954,0.0015615946,-0.0014849500,-0.1013577409,0.0000326941
557664.4900229580,-0.0006527598,9.7892918884,-0.0109588461,0.0004475300,-0.1018351683,0.0000543893
557664.5000229580,0.0004171786,9.7955390362,0.0114553359,-0.0009529752,-0.1035495668,0.0000218465
557664.5100229580,-0.0009442254,9.7914247648,-0.0082101564,-0.0007901258,-0.1039076374,0.0000218465
557664.5200229581,-0.0033469242,9.7923275610,-0.0030041063,0.0003932468,-0.1050469528,0.0000543893
557664.5300229579,-0.0017410102,9.7938541528,0.0078120968,-0.0015283766,-0.1061211646,0.0000435417
557664.5400229580,0.0008616514,9.7896037505,-0.0121914720,0.0000784046,-0.1064032808,0.0000326941
557664.5500229580,-0.0019007128,9.7953788661,0.0076615533,-0.0003884305,-0.1076077000,0.0000326941
557664.5600229580,-0.0016568551,9.7923337446,-0.0014929648,-0.0013112440,-0.1083889449,0.0000543893
557664.5700229580,-0.0009454725,9.7911198498,-0.0085153154,0.0004800999,-0.1092569948,0.0000435417
557664.5800229580,0.0004232711,9.7955386891,0.0122178847,-0.0012026777,-0.1098971815,0.0000218465
557664.5900229580,-0.0008113013,9.7902065635,-0.0112621783,-0.0005404233,-0.1111450032,0.0000543893
557664.6000229580,-0.0020973434,9.7929408654,0.0009512766,0.0001326877,-0.1115681776,0.0000109989
557664.6100229580,-0.0023839922,9.7944634953,0.0040047068,-0.0015609465,-0.1131957711,0.0000435417
557664.6200229580,-0.0003524207,9.7908183387,-0.0108081762,0.0001978275,-0.1135755429,0.0000543893
557664.6300229580,-0.0008044052,9.7946191503,0.0108550283,-0.0006924161,-0.1141506259,0.0000435417
557664.6400229580,-0.0019875996,9.7914189991,-0.0051510800,-0.0011375379,-0.1156697132,0.0000435417
557664.6500229581,-0.0013817104,9.7915742354,-0.0056136145,0.0004800999,-0.1160494851,0.0000326941
557664.6600229579,-0.0018842486,9.7955304209,0.0097967597,-0.0014415235,-0.1171019955,0.0000435417
557664.6700229580,-0.0002121282,9.7902096895,-0.0126398411,-0.0002581509,-0.1179157923,0.0000543893
557664.6800229580,-0.0010093933,9.7940115420,0.0039930789,-0.0000627316,-0.1186319334,0.0000326941
557664.6900229580,-0.0020899750,9.7935504176,0.0021716337,-0.0015935163,-0.1198906058,0.0000435417
557664.7000229580,-0.0005080735,9.7900554260,-0.0115698051,0.0003606769,-0.1206610000,0.0000435417
557664.7100229580,-0.0000422969,9.7950797880,0.0110014036,-0.0009204053,-0.1213662906,0.0000652368
557664.7200229580,-0.0015561497,9.7918798444,-0.0082048721,-0.0010289716,-0.1226249629,0.0000218465
557664.7300229580,-0.0010552737,9.7920317474,-0.0027182573,0.0003715336,-0.1232108966,0.0000543893
557664.7400229580,-0.0017329896,9.7949211468,0.0093376826,-0.0014849500,-0.1240789464,0.0000543893
557664.7500229580,-0.0003798514,9.7906674088,-0.0143159704,-0.0001821545,-0.1250880544,0.0000326941
557664.7600229580,-0.0002186931,9.7940130714,0.0074944596,-0.0003232907,-0.1257390918,0.0000543893
557664.7700229581,-0.0025549481,9.7929389896,0.0009550828,-0.0014849500,-0.1268133035,0.0000435417
557664.7800229579,-0.0015544510,9.7905073105,-0.0086630292,0.0003932468,-0.1278983659,0.0000435417
557664.7900229580,0.0008747546,9.7952359277,0.0112988805,-0.0011483945,-0.1279960215,0.0000218465
557664.8000229580,-0.0014304793,9.7912720285,-0.0118666541,-0.0007032727,-0.1292004407,0.0000543893
557664.8100229580,-0.0008642841,9.7927926464,0.0024661545,0.0000566913,-0.1302203993,0.0000652368
557664.8200229580,-0.0020649526,9.7940064707,0.0055270576,-0.0016043730,-0.1311861048,0.0000543893
557664.8300229580,-0.0000578085,9.7897527341,-0.0126413191,0.0001652576,-0.1322169140,0.0000543893
557664.8400229580,-0.0001972689,9.7950793016,0.0106976528,-0.0007792691,-0.1328896527,0.0000218465
557664.8500229580,-0.0001668427,9.7923420111,-0.0059284351,-0.0012352476,-0.1330632627,0.0000435417
557664.8600229580,-0.0026099816,9.7908072236,-0.0069764012,0.0003715336,-0.1350272255,0.0000652368
557664.8700229580,-0.0006420363,9.7955341732,0.0125317854,-0.0014849500,-0.1350706280,0.0000543893
557664.8800229580,0.0002381942,9.7905169664,-0.0134060566,-0.0003558606,-0.1361990929,0.0000435417
557664.8900229580,-0.0022333568,9.7937017638,0.0033930502,-0.0001495846,-0.1374035121,0.0000543893
557664.9000229581,-0.0014669980,9.7940096662,0.0039968851,-0.0016912260,-0.1376205245,0.0000435417
557664.9100229579,-0.0006678621,9.7906651861,-0.0121782963,0.0002629673,-0.1393240724,0.0000543893
557664.9200229580,-0.0001948605,9.7947741783,0.0108500231,-0.0009855451,-0.1397689480,0.0000326941
557664.9300229580,-0.0004914373,9.7920368872,-0.0085187031,-0.0010289716,-0.1400944667,0.0000435417
557664.9400229580,-0.0021199288,9.7924846735,-0.0020991278,0.0002412540,-0.1418197158,0.0000760844
557664.9500229580,-0.0008165903,9.7946198447,0.0093299307,-0.0016803694,-0.1426552138,0.0000543893
557664.9600229580,0.0008592717,9.7902138582,-0.0121911930,-0.0000844449,-0.1431000894,0.0000435417
557664.9700229580,-0.0009934954,9.7946206081,0.0062810043,-0.0005621366,-0.1446517286,0.0000543893
557664.9800229580,-0.0013584441,9.7927928537,-0.0021053320,-0.0015175199,-0.1449446954,0.0000652368
557664.9900229580,-0.0006209066,9.7911199894,-0.0060776967,0.0003715336,-0.1457693428,0.0000760844
557665.0000229580,-0.0012613004,9.7956846851,0.0114693618,-0.0014089536,-0.1470280151,0.0000543893
557665.0100229580,0.0007122344,9.7903654126,-0.0114273057,-0.0006924161,-0.1475162931,0.0000652368
557665.0200229581,-0.0025524824,9.7932438351,0.0014127516,0.0000458347,-0.1484060443,0.0000543893
557665.0300229579,-0.0022113950,9.7940054983,0.0062908751,-0.0018106489,-0.1495453597,0.0000652368
557665.0400229580,-0.0000626252,9.7903629806,-0.0129460596,0.0001109745,-0.1500987415,0.0000543893
557665.0500229580,-0.0005145524,9.7947737610,0.0090224435,-0.0007792691,-0.1512923101,0.0000543893
557665.0600229580,-0.0006170791,9.7929496874,-0.0047042718,-0.0013763838,-0.1521061069,0.0000543893
557665.0700229580,-0.0026099243,9.7914171923,-0.0066711027,0.0003281071,-0.1528656505,0.0000760844
557665.0800229580,-0.0015615535,9.7950731880,0.0117766398,-0.0015392332,-0.1537337004,0.0000652368
557665.0900229580,0.0013114075,9.7903685387,-0.0128049685,-0.0005078534,-0.1546560034,0.0000543893
557665.1000229580,-0.0002479946,9.7934047691,0.0035289269,-0.0001821545,-0.1549272690,0.0000435417
557665.1100229580,-0.0028483131,9.7943095092,0.0030933847,-0.0017672224,-0.1568044268,0.0000435417
557665.1200229580,-0.0012651931,9.7908144481,-0.0104955443,0.0001869709,-0.1571733480,0.0000652368
557665.1300229580,-0.0005059942,9.7950782593,0.0102426610,-0.0010072584,-0.1581173523,0.0000760844
557665.1400229580,0.0004328679,9.7915826414,-0.0076114662,-0.0011483945,-0.1594519790,0.0000435417
557665.1500229581,-0.0010570584,9.7924893282,-0.0027180480,0.0001326877,-0.1595062321,0.0000543893
557665.1600229579,-0.0029521077,9.7943061064,0.0091950437,-0.0016695127,-0.1606563982,0.0000760844
557665.1700229580,0.0007030239,9.7896034724,-0.0129527520,-0.0002364377,-0.1618716680,0.0000869320
557665.1800229580,0.0017588778,9.7950889578,0.0073259446,-0.0005621366,-0.1621754855,0.0000326941
557665.1900229580,-0.0027233523,9.7926342826,-0.0011789246,-0.0015392332,-0.1635209628,0.0000543893
557665.2000229580,-0.0024653527,9.7909607924,-0.0078926587,0.0002086841,-0.1642479546,0.0000977796
557665.2100229580,0.0005690899,9.7953872040,0.0113014877,-0.0014306669,-0.1647036807,0.0000652368
557665.2200229580,0.0008641744,9.7905185648,-0.0114285047,-0.0007792691,-0.1660274568,0.0000652368
557665.2300229580,-0.0013328267,9.7930963799,0.0012500222,-0.0000953015,-0.1665591374,0.0000543893
557665.2400229580,-0.0026744973,9.7938514427,0.0055320628,-0.0017997923,-0.1674814404,0.0000543893
557665.2500229580,-0.0003652293,9.7906665756,-0.0124858533,0.0000024082,-0.1688811708,0.0000760844
557665.2600229580,0.0020986034,9.7943257684,0.0112883120,-0.0009855451,-0.1692934945,0.0000760844
557665.2700229581,-0.0007879776,9.7920351505,-0.0074485973,-0.0011918211,-0.1704436606,0.0000435417
557665.2800229579,-0.0008960800,9.7915745142,-0.0021096963,0.0000458347,-0.1712032042,0.0000869320
557665.2900229580,-0.0014425419,9.7949232306,0.0075050281,-0.0016912260,-0.1719735985,0.0000760844
557665.3000229580,0.0010117493,9.7896045146,-0.0124977602,-0.0002907208,-0.1731237646,0.0000652368
557665.3100229580,0.0007056695,9.7941687944,0.0087069950,-0.0006598462,-0.1739809638,0.0000543893
557665.3200229580,-0.0013469113,9.7923347174,-0.0008854632,-0.0015500898,-0.1744041381,0.0000543893
557665.3300229580,-0.0016868949,9.7903530473,-0.0062216741,0.0002195408,-0.1755217524,0.0000869320
557665.3400229580,0.0010278844,9.7950840260,0.0112975420,-0.0015500898,-0.1754132461,0.0000977796
557665.3500229580,0.0022345516,9.7905243312,-0.0117449428,-0.0006815595,-0.1748924162,0.0000652368
557665.3600229580,0.0006744972,9.7931031197,0.0042837237,-0.0002581509,-0.1743498850,0.0000543893
557665.3700229580,-0.0014512435,9.7930938103,0.0055215641,-0.0017563658,-0.1740894701,0.0000760844
557665.3800229580,-0.0008082120,9.7906638665,-0.0106519300,0.0000784046,-0.1741003207,0.0000869320
557665.3900229580,0.0028534006,9.7947868227,0.0105196288,-0.0010941114,-0.1740352169,0.0000760844
557665.4000229581,0.0008995684,9.7911265199,-0.0067004231,-0.0012135343,-0.1741654244,0.0000543893
557665.4100229579,-0.0022652387,9.7915686784,-0.0016407484,0.0001218311,-0.1742088269,0.0000869320
557665.4200229580,-0.0002009531,9.7947745255,0.0100874743,-0.0017346525,-0.1742196775,0.0000760844
557665.4300229580,0.0010050618,9.7897573887,-0.0132602393,-0.0003232907,-0.1742413788,0.0000760844
557665.4400229580,0.0019167670,9.7937168408,0.0073240480,-0.0005729932,-0.1741762750,0.0000652368
557665.4500229580,-0.0008795011,9.7929460065,0.0006361072,-0.0016477995,-0.1741654244,0.0000543893
557665.4600229580,-0.0024617258,9.7906555997,-0.0075877787,0.0002195408,-0.1741979763,0.0000977796
557665.4700229580,0.0001126750,9.7950802744,0.0113051544,-0.0013872404,-0.1741111713,0.0000869320
557665.4800229580,0.0020954202,9.7905229421,-0.0100660667,-0.0009204053,-0.1741654244,0.0000760844
557665.4900229580,0.0011210494,9.7921906673,0.0024493819,-0.0000301617,-0.1742522294,0.0000543893
557665.5000229580,-0.0028105107,9.7946123410,0.0079738365,-0.0018432188,-0.1741437232,0.0000652368
557665.5100229590,-0.0003610363,9.7899038715,-0.0123336923,-0.0000627316,-0.1742088269,0.0000977796
557665.5200229590,0.0020833864,9.7944791286,0.0094582647,-0.0008661222,-0.1742739307,0.0000760844
557665.5300229590,0.0013798159,9.7921945565,-0.0033485264,-0.0014089536,-0.1741979763,0.0000652368
557665.5400229590,-0.0019772279,9.7915709011,-0.0037784225,0.0002195408,-0.1742413788,0.0000869320
557665.5500229590,-0.0014193616,9.7952268957,0.0105553627,-0.0017020826,-0.1742847813,0.0000977796
557665.5600229590,0.0014736618,9.7900636240,-0.0117388084,-0.0005404233,-0.1742847813,0.0000652368
557665.5700229590,0.0011492184,9.7937139922,0.0067203527,-0.0003341473,-0.1742739307,0.0000652368
557665.5800229590,-0.0010130775,9.7937067660,0.0033829003,-0.0017889357,-0.1742305282,0.0000652368
557665.5900229590,-0.0014196275,9.7900514660,-0.0111046634,0.0001652576,-0.1742630800,0.0000869320
557665.6000229591,0.0002712738,9.7947755681,0.0119137852,-0.0011918211,-0.1742196775,0.0000869320
557665.6100229590,0.0005878685,9.7918881122,-0.0071550662,-0.0011918211,-0.1742847813,0.0000760844
557665.6200229590,0.0004865396,9.7921895550,-0.0005957383,0.0001001178,-0.1742739307,0.0000760844
557665.6300229590,-0.0009685016,9.7947716769,0.0094837789,-0.0018106489,-0.1742630800,0.0000760844
557665.6400229590,0.0000898810,9.7900586215,-0.0130999776,-0.0002472943,-0.1742413788,0.0000543893
557665.6500229590,-0.0002150089,9.7943178474,0.0081046382,-0.0005512799,-0.1743281838,0.0000760844
557665.6600229590,0.0003377175,9.7927986902,0.0001683582,-0.0017129393,-0.1742956319,0.0000869320
557665.6700229590,0.0008879783,9.7909746873,-0.0082255905,0.0002086841,-0.1742847813,0.0000760844
557665.6800229590,-0.0017061251,9.7955295880,0.0129981958,-0.0013872404,-0.1743607356,0.0000652368
557665.6900229590,-0.0001870484,9.7912757114,-0.0089791186,-0.0009421186,-0.1742847813,0.0000652368
557665.7000229590,0.0015628995,9.7931083990,0.0009208966,-0.0000735882,-0.1743498850,0.0000869320
557665.7100229590,0.0010034569,9.7944754460,0.0079420483,-0.0018215056,-0.1742739307,0.0000543893
557665.7200229591,-0.0009693625,9.7897487741,-0.0121761774,-0.0000953015,-0.1743281838,0.0000652368
557665.7300229589,-0.0009611619,9.7950762446,0.0105514868,-0.0007684125,-0.1742739307,0.0000760844
557665.7400229590,0.0004786623,9.7926474829,-0.0013580778,-0.0015500898,-0.1742088269,0.0000760844
557665.7500229590,0.0015207033,9.7914333804,-0.0051802610,0.0002521106,-0.1742630800,0.0000760844
557665.7600229590,-0.0004925619,9.7953824799,0.0120729176,-0.0015826597,-0.1743390344,0.0000543893
557665.7700229590,-0.0014323788,9.7905096717,-0.0124770419,-0.0007032727,-0.1743390344,0.0000760844
557665.7800229590,0.0012755411,9.7935636182,0.0033637995,-0.0001821545,-0.1743064825,0.0000652368
557665.7900229590,0.0012956608,9.7937149647,0.0059565352,-0.0018432188,-0.1743281838,0.0000652368
557665.8000229590,-0.0001987533,9.7899039413,-0.0111148830,0.0000892612,-0.1743390344,0.0000652368
557665.8100229590,-0.0018678418,9.7950720069,0.0116266675,-0.0010181150,-0.1743607356,0.0000869320
557665.8200229590,0.0004499270,9.7915816693,-0.0054763296,-0.0013546705,-0.1742956319,0.0000869320
557665.8300229590,0.0015292902,9.7920428632,-0.0038073941,0.0001544010,-0.1743498850,0.0000760844
557665.8400229590,-0.0004986832,9.7950778427,0.0111577196,-0.0017346525,-0.1743390344,0.0000760844
557665.8500229591,-0.0008192072,9.7903595070,-0.0121771671,-0.0003775739,-0.1743932875,0.0000543893
557665.8600229590,0.0002419436,9.7938622814,0.0077956032,-0.0005078534,-0.1742847813,0.0000977796
557665.8700229590,0.0004975922,9.7931038832,0.0012347973,-0.0016477995,-0.1742847813,0.0000869320
557665.8800229590,-0.0006294648,9.7908154910,-0.0072979143,0.0001869709,-0.1743824369,0.0000869320
557665.8900229590,-0.0015560559,9.7952253677,0.0125392583,-0.0013763838,-0.1742630800,0.0000760844
557665.9000229590,-0.0001968825,9.7903613138,-0.0106571445,-0.0009312620,-0.1743932875,0.0000760844
557665.9100229590,0.0009636691,9.7924953042,0.0019932609,-0.0000627316,-0.1744149888,0.0000652368
557665.9200229590,-0.0002077265,9.7940124464,0.0088670474,-0.0018215056,-0.1742956319,0.0000760844
557665.9300229590,-0.0005068550,9.7900553566,-0.0114172953,-0.0000301617,-0.1743715863,0.0000652368
557665.9400229590,-0.0002106724,9.7950800654,0.0090200455,-0.0008335523,-0.1743715863,0.0000869320
557665.9500229590,0.0010778067,9.7923456245,-0.0028883899,-0.0014958067,-0.1743064825,0.0000652368
557665.9600229590,0.0006122100,9.7915817391,-0.0042575203,0.0001761142,-0.1743715863,0.0000760844
557665.9700229591,-0.0010954192,9.7950745778,0.0128404019,-0.0016260862,-0.1744149888,0.0000760844
557665.9800229589,-0.0005165744,9.7903608965,-0.0124847241,-0.0005512799,-0.1743715863,0.0000977796
557665.9900229590,0.0000643863,9.7934056030,0.0044414480,-0.0003341473,-0.1742088269,0.0001086272
557666.0000229590,0.0006665626,9.7929510789,0.0032160857,-0.0017346525,-0.1741979763,0.0000652368
557666.0100229590,0.0007372568,9.7908214657,-0.0080718817,0.0000892612,-0.1744909431,0.0000977796
557666.0200229590,-0.0006481288,9.7955345204,0.0117692366,-0.0012352476,-0.1744258394,0.0000760844
557666.0300229590,-0.0009472860,9.7912724462,-0.0086677554,-0.0010615415,-0.1744583913,0.0000760844
557666.0400229590,-0.0001138233,9.7924914827,0.0007820640,0.0000024082,-0.1742739307,0.0000869320
557666.0500229590,0.0005647821,9.7949299705,0.0105387296,-0.0018106489,-0.1742847813,0.0000760844
557666.0600229590,0.0000917231,9.7902110095,-0.0127948883,-0.0000735882,-0.1743715863,0.0000977796
557666.0700229590,-0.0006609948,9.7947727885,0.0097862610,-0.0007901258,-0.1743390344,0.0000760844
557666.0800229590,-0.0002840409,9.7923393721,-0.0015043834,-0.0015283766,-0.1743173331,0.0000760844
557666.0900229590,0.0004566145,9.7914287952,-0.0047138506,0.0002086841,-0.1745017937,0.0000869320
557666.1000229591,-0.0009483532,9.7952280077,0.0122291639,-0.0015935163,-0.1743607356,0.0000652368
557666.1100229590,-0.0002016992,9.7909715603,-0.0109618850,-0.0006164197,-0.1743064825,0.0000652368
557666.1200229590,-0.0000790529,9.7929469803,0.0053575660,-0.0002690076,-0.1744800925,0.0000760844
557666.1300229590,-0.0002461238,9.7938621415,0.0039866654,-0.0017346525,-0.1743715863,0.0000652368
557666.1400229590,0.0007268565,9.7903645793,-0.0095971886,0.0001001178,-0.1743932875,0.0000869320
557666.1500229590,-0.0008043192,9.7955341035,0.0113129761,-0.0012352476,-0.1743607356,0.0000760844
557666.1600229590,-0.0009277612,9.7915763196,-0.0060749500,-0.0010723981,-0.1742847813,0.0000760844
557666.1700229590,0.0003497879,9.7915780582,0.0010828587,0.0000024082,-0.1743932875,0.0000977796
557666.1800229590,0.0007007955,9.7941690722,0.0080969560,-0.0017129393,-0.1742739307,0.0000652368
557666.1900229590,-0.0000596220,9.7899053304,-0.0127937591,-0.0001712979,-0.1743498850,0.0000977796
557666.2000229590,-0.0002112960,9.7949276079,0.0088674660,-0.0008118390,-0.1743932875,0.0000760844
557666.2100229590,-0.0008965889,9.7926419943,-0.0016516787,-0.0014632368,-0.1743824369,0.0000760844
557666.2200229591,0.0000014468,9.7914267805,-0.0044050248,0.0001761142,-0.1744258394,0.0000869320
557666.2300229589,-0.0000392363,9.7952321066,0.0114590026,-0.0016260862,-0.1744149888,0.0000652368
557666.2400229590,0.0002606649,9.7897532208,-0.0109662492,-0.0005838498,-0.1744041381,0.0000760844
557666.2500229590,-0.0000819988,9.7940145993,0.0055105640,-0.0002690076,-0.1744692419,0.0000977796
557666.2600229590,0.0005183928,9.7940176559,0.0042854110,-0.0017997923,-0.1744366900,0.0000869320
557666.2700229590,0.0001087535,9.7899050530,-0.0108124010,0.0001326877,-0.1743715863,0.0000869320
557666.2800229590,-0.0009397950,9.7955325061,0.0134493814,-0.0011918211,-0.1744258394,0.0000652368
557666.2900229590,0.0000019843,9.7906642848,-0.0047103931,-0.0011809644,-0.1743064825,0.0000760844
557666.3000229590,0.0004804470,9.7921899021,-0.0013582871,0.0000784046,-0.1743064825,0.0000652368
557666.3100229590,-0.0003742026,9.7947750807,0.0074960771,-0.0017346525,-0.1743715863,0.0000760844
557666.3200229590,-0.0005092347,9.7906654642,-0.0114170163,-0.0002364377,-0.1743064825,0.0001086272
557666.3300229590,0.0005641012,9.7941675442,0.0100808516,-0.0006598462,-0.1743715863,0.0000869320
557666.3400229590,0.0012517372,9.7931074957,0.0001608853,-0.0015392332,-0.1744041381,0.0000869320
557666.3500229591,0.0001295829,9.7911238101,-0.0076091380,0.0002086841,-0.1744258394,0.0000760844
557666.3600229590,-0.0014114556,9.7950739522,0.0114703515,-0.0015392332,-0.1744149888,0.0000652368
557666.3700229590,-0.0003408305,9.7909701712,-0.0092830089,-0.0007684125,-0.1744475406,0.0000869320
557666.3800229590,0.0009819754,9.7927992470,0.0044335565,-0.0001170148,-0.1743932875,0.0000869320
557666.3900229590,0.0009912432,9.7941711560,0.0062643014,-0.0018106489,-0.1744475406,0.0000652368
557666.4000229590,-0.0009754263,9.7900541057,-0.0127860769,0.0000349781,-0.1744692419,0.0000977796
557666.4100229590,-0.0015499920,9.7949200362,0.0131491578,-0.0010506849,-0.1744366900,0.0000869320
557666.4200229590,0.0001588557,9.7914271280,-0.0037962545,-0.0013112440,-0.1744258394,0.0000869320
557666.4300229590,0.0006158655,9.7915815308,-0.0037999910,0.0001761142,-0.1743932875,0.0000760844
557666.4400229590,-0.0006536264,9.7953823407,0.0110066181,-0.0017346525,-0.1742739307,0.0000760844
557666.4500229590,-0.0008094878,9.7900539671,-0.0111097383,-0.0004210004,-0.1744041381,0.0000977796
557666.4600229590,-0.0002077265,9.7940124464,0.0088670474,-0.0004318570,-0.1743932875,0.0001086272
557666.4700229591,0.0005067453,9.7932558546,0.0024549451,-0.0016803694,-0.1743824369,0.0000760844
557666.4800229589,-0.0001925747,9.7908185473,-0.0098943864,0.0001652576,-0.1744800925,0.0000869320
557666.4900229590,-0.0015499633,9.7952250206,0.0133018071,-0.0013872404,-0.1744366900,0.0000760844
557666.5000229590,0.0001258987,9.7908190340,-0.0082193165,-0.0009421186,-0.1744258394,0.0001086272
557666.5100229590,0.0005073402,9.7931033277,0.0024548754,0.0000024082,-0.1743824369,0.0000652368
557666.5200229590,-0.0012894694,9.7941613602,0.0071983910,-0.0017997923,-0.1743498850,0.0000652368
557666.5300229590,-0.0008192072,9.7903595070,-0.0121771671,-0.0000735882,-0.1744366900,0.0000977796
557666.5400229590,-0.0000325776,9.7947742481,0.0120688324,-0.0008552655,-0.1743824369,0.0000869320
557666.5500229590,0.0007703285,9.7926494973,-0.0030382226,-0.0014632368,-0.1744366900,0.0000652368
557666.5600229590,0.0004505219,9.7914291424,-0.0054763994,0.0001544010,-0.1744475406,0.0000652368
557666.5700229590,-0.0012577022,9.7950745080,0.0116215925,-0.0016477995,-0.1742630800,0.0000869320
557666.5800229600,-0.0006502081,9.7905116871,-0.0100432295,-0.0005295667,-0.1743281838,0.0000760844
557666.5900229600,0.0002371269,9.7944725279,0.0074908627,-0.0003341473,-0.1743498850,0.0001086272
557666.6000229600,0.0012743799,9.7941736564,0.0035165883,-0.0017455092,-0.1743173331,0.0000869320
557666.6100229600,0.0001057503,9.7903627032,-0.0109647015,0.0001435444,-0.1743824369,0.0000869320
557666.6200229600,-0.0012455171,9.7950738136,0.0131466901,-0.0012026777,-0.1743064825,0.0000760844
557666.6300229600,-0.0003169980,9.7917312781,-0.0059274454,-0.0011809644,-0.1744041381,0.0000977796
557666.6400229600,0.0004749781,9.7923427068,-0.0019682564,0.0001652576,-0.1744475406,0.0000869320
557666.6500229600,-0.0001899578,9.7950788850,0.0116127114,-0.0018106489,-0.1744692419,0.0000760844
557666.6600229600,-0.0006587950,9.7899022044,-0.0114160963,-0.0003015774,-0.1745343456,0.0000977796
557666.6700229601,-0.0000503176,9.7940127939,0.0094758177,-0.0005187100,-0.1745234950,0.0000977796
557666.6800229599,0.0007990351,9.7934103265,0.0009273798,-0.0016695127,-0.1744366900,0.0000760844
557666.6900229600,-0.0009515938,9.7908152126,-0.0094305134,0.0001761142,-0.1745451962,0.0000869320
557666.7000229600,-0.0013973998,9.7955306302,0.0134531876,-0.0013872404,-0.1743390344,0.0000869320
557666.7100229600,-0.0010901015,9.7909662810,-0.0075990579,-0.0009204053,-0.1744366900,0.0001086272
557666.7200229600,0.0009649449,9.7931052035,0.0024510692,-0.0000410183,-0.1743390344,0.0000977796
557666.7300229600,0.0006856071,9.7946274168,0.0064195579,-0.0017997923,-0.1743824369,0.0000760844
557666.7400229600,-0.0012664976,9.7898995644,-0.0111060018,-0.0000301617,-0.1743607356,0.0000977796
557666.7500229600,-0.0012613577,9.7950747163,0.0111640633,-0.0009746885,-0.1744041381,0.0000869320
557666.7600229600,-0.0002975018,9.7917301671,-0.0034872893,-0.0013329572,-0.1743932875,0.0000760844
557666.7700229600,0.0007756541,9.7909717706,-0.0031914997,0.0002086841,-0.1744583913,0.0000977796
557666.7800229600,0.0001145458,9.7955376468,0.0117628929,-0.0017237959,-0.1743932875,0.0000869320
557666.7900229600,-0.0009638648,9.7899009538,-0.0114135588,-0.0004318570,-0.1744041381,0.0000977796
557666.8000229599,-0.0006763552,9.7934012267,0.0071929673,-0.0003667172,-0.1744475406,0.0000760844
557666.8100229600,0.0006550584,9.7937141995,0.0021488662,-0.0017346525,-0.1744475406,0.0000869320
557666.8200229600,0.0010410794,9.7905178013,-0.0083795782,0.0001326877,-0.1745126444,0.0000869320
557666.8300229600,-0.0012424852,9.7949211478,0.0134516399,-0.0013112440,-0.1743715863,0.0000652368
557666.8400229600,-0.0004775248,9.7909686432,-0.0072991133,-0.0009638318,-0.1743824369,0.0000869320
557666.8500229600,-0.0002712323,9.7924911352,0.0001732937,0.0000024082,-0.1744366900,0.0000977796
557666.8600229600,-0.0006749646,9.7952310637,0.0082613727,-0.0018215056,-0.1743173331,0.0000869320
557666.8700229600,-0.0003512308,9.7905132848,-0.0108083157,-0.0000953015,-0.1743824369,0.0000977796
557666.8800229600,-0.0000362618,9.7944694720,0.0114586539,-0.0008009824,-0.1744583913,0.0000869320
557666.8900229600,0.0001644393,9.7924942609,-0.0025756882,-0.0014632368,-0.1743173331,0.0000760844
557666.9000229600,0.0002954927,9.7908186872,-0.0060854487,0.0001869709,-0.1744366900,0.0000760844
557666.9100229600,-0.0021692561,9.7950705480,0.0120867342,-0.0016586561,-0.1745343456,0.0000977796
557666.9200229601,0.0005712896,9.7905166199,-0.0099008696,-0.0005512799,-0.1744366900,0.0000977796
557666.9300229599,0.0012907867,9.7937152424,0.0053464961,-0.0002472943,-0.1744258394,0.0000977796
557666.9400229600,-0.0000929653,9.7940152243,0.0041379762,-0.0018432188,-0.1744692419,0.0000760844
557666.9500229600,-0.0014153770,9.7898987308,-0.0106472038,0.0001326877,-0.1745234950,0.0000652368
557666.9600229600,-0.0004768074,9.7944666240,0.0135975967,-0.0011809644,-0.1742847813,0.0000869320
557666.9700229600,0.0005909005,9.7917354464,-0.0068501164,-0.0012135343,-0.1744475406,0.0000760844
557666.9800229600,0.0003169169,9.7918849174,-0.0028822555,0.0001652576,-0.1744800925,0.0000869320
557666.9900229600,-0.0014115129,9.7944639834,0.0111650530,-0.0017889357,-0.1743064825,0.0000977796
557667.0000229600,-0.0002011616,9.7902090646,-0.0112672533,-0.0003341473,-0.1743932875,0.0001086272
557667.0100229600,0.0008551725,9.7943220855,0.0084007765,-0.0005078534,-0.1747947606,0.0000869320
557667.0200229600,-0.0004133382,9.7932523807,0.0018525185,-0.0017237959,-0.1743173331,0.0000652368
557667.0300229600,-0.0007888019,9.7897478023,-0.0086697217,0.0002303974,-0.1744800925,0.0000977796
557667.0400229600,-0.0013888702,9.7955301442,0.0145207560,-0.0014415235,-0.1744475406,0.0000977796
557667.0500229599,0.0013431173,9.7906717177,-0.0086870655,-0.0008878354,-0.1741979763,0.0001086272
557667.0600229600,-0.0002657346,9.7926433149,0.0009359122,0.0000349781,-0.1743498850,0.0000869320
557667.0700229600,-0.0014298192,9.7941600406,0.0087247573,-0.0018866453,-0.1743173331,0.0000760844
557667.0800229600,-0.0008113873,9.7892916103,-0.0117201261,-0.0000410183,-0.1745234950,0.0000977796
557667.0900229600,-0.0006445880,9.7943143745,0.0116161688,-0.0008335523,-0.1745777481,0.0000869320
557667.1000229600,0.0018441368,9.7923485426,-0.0024372043,-0.0014849500,-0.1744366900,0.0000652368
557667.1100229600,0.0002973061,9.7906660908,-0.0059330087,0.0002195408,-0.1744366900,0.0000760844
557667.1200229600,-0.0026207396,9.7953733094,0.0130057385,-0.0016260862,-0.1744800925,0.0000869320
557667.1300229600,-0.0006599562,9.7905122426,-0.0112633075,-0.0005838498,-0.1744692419,0.0001086272
557667.1400229600,0.0011485948,9.7935615347,0.0065677732,-0.0002147244,-0.1743390344,0.0001086272
557667.1500229600,0.0002163549,9.7938637396,0.0045928983,-0.0018323622,-0.1743607356,0.0000652368
557667.1600229600,-0.0015660985,9.7897455092,-0.0104934951,0.0000784046,-0.1744149888,0.0000869320
557667.1700229601,-0.0004846847,9.7949245520,0.0128352572,-0.0011266813,-0.1743715863,0.0000977796
557667.1800229599,-0.0001620260,9.7917317645,-0.0056236946,-0.0011592512,-0.1743715863,0.0000869320
557667.1900229600,0.0003345996,9.7920364028,-0.0005945393,0.0000675479,-0.1744475406,0.0000977796
557667.2000229600,-0.0008141533,9.7946197058,0.0096349502,-0.0017129393,-0.1744583913,0.0000977796
557667.2100229600,-0.0011103072,9.7898999813,-0.0106497413,-0.0002147244,-0.1744583913,0.0000977796
557667.2200229600,0.0005689465,9.7938622821,0.0105382413,-0.0007249860,-0.1743932875,0.0000652368
557667.2300229600,0.0006287889,9.7929532314,-0.0015117168,-0.0015500898,-0.1744041381,0.0000760844
557667.2400229600,-0.0010821669,9.7911183218,-0.0065314198,0.0002303974,-0.1745560469,0.0000869320
557667.2500229600,-0.0009246640,9.7944641927,0.0148214810,-0.0015392332,-0.1744475406,0.0000977796
557667.2600229600,0.0001119288,9.7912773092,-0.0097442049,-0.0006924161,-0.1745126444,0.0000869320
557667.2700229600,0.0005238331,9.7935598669,0.0047427310,-0.0001278714,-0.1744366900,0.0000977796
557667.2800229600,-0.0016049108,9.7940082077,0.0058282709,-0.0018757887,-0.1743824369,0.0000760844
557667.2900229600,-0.0005092921,9.7900554954,-0.0117223148,0.0000458347,-0.1742847813,0.0001086272
557667.3000229599,0.0010395033,9.7955408430,0.0129753586,-0.0010398282,-0.1743498850,0.0000977796
557667.3100229600,0.0006152993,9.7920390421,-0.0036472720,-0.0013329572,-0.1743932875,0.0000760844
557667.3200229600,-0.0007533218,9.7912707106,-0.0034836924,0.0002303974,-0.1743932875,0.0000869320
557667.3300229600,-0.0014084523,9.7946163020,0.0116226520,-0.0017129393,-0.1744366900,0.0000977796
557667.3400229600,0.0004028568,9.7899069285,-0.0121875263,-0.0004427136,-0.1744366900,0.0001086272
557667.3500229600,0.0005464185,9.7940160589,0.0077931355,-0.0004535703,-0.1744475406,0.0000652368
557667.3600229600,0.0000474132,9.7943215283,0.0027642592,-0.0017129393,-0.1743390344,0.0000869320
557667.3700229600,-0.0007887159,9.7906627555,-0.0082117739,0.0001869709,-0.1744366900,0.0000977796
557667.3800229600,-0.0003351243,9.7956878118,0.0128343372,-0.0013655271,-0.1743824369,0.0000977796
557667.3900229600,0.0005889723,9.7906681052,-0.0076131535,-0.0009204053,-0.1744583913,0.0000869320
557667.4000229600,0.0000484883,9.7927965369,0.0021535226,0.0000024082,-0.1744258394,0.0000869320
557667.4100229600,-0.0015817305,9.7943118728,0.0088786056,-0.0018215056,-0.1743607356,0.0000760844
557667.4200229601,-0.0008155804,9.7900543143,-0.0118722871,-0.0000735882,-0.1744692419,0.0000977796
557667.4300229599,0.0011882966,9.7946267234,0.0120586128,-0.0008444089,-0.1744366900,0.0000869320
557667.4400229600,0.0001802513,9.7921883738,-0.0007457106,-0.0014849500,-0.1743498850,0.0000869320
557667.4500229600,-0.0012230829,9.7915745135,-0.0048523345,0.0002521106,-0.1744692419,0.0001086272
557667.4600229600,-0.0012455458,9.7947688292,0.0129940409,-0.0015826597,-0.1744475406,0.0000977796
557667.4700229600,0.0002637541,9.7902105238,-0.0103560009,-0.0006381330,-0.1744041381,0.0000869320
557667.4800229600,0.0020498058,9.7937185771,0.0048826232,-0.0002581509,-0.1744258394,0.0000760844
557667.4900229600,-0.0011430844,9.7935523639,0.0061292750,-0.0017889357,-0.1744366900,0.0000869320
557667.5000229600,-0.0018705447,9.7898967161,-0.0103383781,0.0000566913,-0.1744800925,0.0000869320
557667.5100229600,0.0002810218,9.7947750126,0.0131338632,-0.0011266813,-0.1744475406,0.0000977796
557667.5200229600,0.0015103317,9.7912814785,-0.0065529186,-0.0011592512,-0.1745343456,0.0000869320
557667.5300229600,0.0000216525,9.7924930801,-0.0013543414,0.0001218311,-0.1744800925,0.0000652368
557667.5400229600,-0.0023279409,9.7944603012,0.0110201556,-0.0017563658,-0.1743932875,0.0000977796
557667.5500229599,-0.0005007625,9.7900550094,-0.0106547465,-0.0002147244,-0.1742847813,0.0000977796
557667.5600229600,0.0016336589,9.7940193248,0.0102244104,-0.0007032727,-0.1743824369,0.0001086272
557667.5700229600,0.0003346856,9.7929513559,-0.0001365915,-0.0014958067,-0.1744041381,0.0000760844
557667.5800229600,-0.0021401345,9.7914183738,-0.0051498113,0.0001652576,-0.1744366900,0.0001086272
557667.5900229600,-0.0012461120,9.7952263405,0.0131467599,-0.0015500898,-0.1743390344,0.0000977796
557667.6000229600,0.0002595037,9.7903632590,-0.0108134604,-0.0005512799,-0.1744692419,0.0001086272
557667.6100229600,0.0006879581,9.7937123247,0.0062666296,-0.0003450040,-0.1744800925,0.0000652368
557667.6200229600,-0.0006861032,9.7934017822,0.0059728892,-0.0017346525,-0.1743824369,0.0000760844
557667.6300229600,-0.0015514191,9.7903546447,-0.0083580795,0.0000892612,-0.1744583913,0.0000977796
557667.6400229600,0.0002755529,9.7949278172,0.0125238940,-0.0012352476,-0.1744041381,0.0000977796
557667.6500229610,0.0022681322,9.7912848826,-0.0071693013,-0.0010398282,-0.1744258394,0.0000977796
557667.6600229610,0.0000326477,9.7927974396,0.0001708957,0.0000458347,-0.1744583913,0.0000869320
557667.6700229610,-0.0020325905,9.7947670916,0.0099501894,-0.0017889357,-0.1744583913,0.0000760844
557667.6800229610,-0.0017295426,9.7903554776,-0.0115595156,-0.0001930112,-0.1744475406,0.0001086272
557667.6900229610,0.0011822041,9.7946270706,0.0112960640,-0.0007032727,-0.1744041381,0.0001086272
557667.7000229610,0.0016959383,9.7931101353,-0.0015205282,-0.0015718031,-0.1743932875,0.0000760844
557667.7100229610,-0.0012322934,9.7908125733,-0.0063777808,0.0002412540,-0.1744692419,0.0000977796
557667.7200229610,-0.0024681474,9.7959839035,0.0133097683,-0.0015392332,-0.1743932875,0.0000869320
557667.7300229610,0.0007250431,9.7905171757,-0.0097496286,-0.0006707028,-0.1744583913,0.0001086272
557667.7400229611,0.0015988885,9.7935638272,0.0056489084,-0.0002364377,-0.1744149888,0.0000977796
557667.7500229609,-0.0000771821,9.7934043528,0.0058153045,-0.0018106489,-0.1744366900,0.0000760844
557667.7600229610,-0.0021743674,9.7902003805,-0.0100306816,0.0000892612,-0.1745126444,0.0001086272
557667.7700229610,-0.0006360011,9.7949238573,0.0129890357,-0.0011483945,-0.1744366900,0.0000869320
557667.7800229610,0.0018178672,9.7915875745,-0.0060977873,-0.0011266813,-0.1744366900,0.0000869320
557667.7900229610,0.0006427874,9.7927999407,0.0001658208,0.0000892612,-0.1745451962,0.0001086272
557667.8000229610,-0.0015591738,9.7944630804,0.0117763608,-0.0017563658,-0.1745017937,0.0000977796
557667.8100229610,-0.0003585419,9.7905137015,-0.0117233743,-0.0002038678,-0.1743824369,0.0000977796
557667.8200229610,-0.0006555545,9.7943149995,0.0102435810,-0.0007032727,-0.1744366900,0.0000869320
557667.8300229610,0.0003419680,9.7926459549,0.0006258178,-0.0015718031,-0.1744041381,0.0000869320
557667.8400229610,0.0003016139,9.7911233244,-0.0051702506,0.0001869709,-0.1743715863,0.0000869320
557667.8500229610,-0.0011002646,9.7953798399,0.0123830121,-0.0014849500,-0.1744366900,0.0000977796
557667.8600229610,0.0002692804,9.7906676879,-0.0094407331,-0.0006815595,-0.1743498850,0.0001086272
557667.8700229611,-0.0000802140,9.7935570186,0.0055103548,-0.0001930112,-0.1743607356,0.0000869320
557667.8800229609,-0.0002364045,9.7935566016,0.0050540942,-0.0017672224,-0.1744475406,0.0000977796
557667.8900229610,-0.0000454801,9.7912769617,-0.0103529752,0.0000784046,-0.1744366900,0.0000977796
557667.9000229610,-0.0009398237,9.7952275217,0.0132967322,-0.0011809644,-0.1744258394,0.0000760844
557667.9100229610,0.0009099974,9.7918883907,-0.0050224670,-0.0011266813,-0.1743932875,0.0001194748
557667.9200229610,0.0009569530,9.7923431939,0.0010781326,0.0000566913,-0.1744475406,0.0000869320
557667.9300229610,-0.0003675151,9.7946222066,0.0082585562,-0.0016586561,-0.1745343456,0.0000869320
557667.9400229610,-0.0015630092,9.7902028122,-0.0098832468,-0.0002472943,-0.1743824369,0.0000977796
557667.9500229610,-0.0001942369,9.7949266358,0.0110026026,-0.0007901258,-0.1744475406,0.0000869320
557667.9600229610,0.0006391032,9.7924951646,-0.0004443578,-0.0014632368,-0.1744583913,0.0000760844
557667.9700229610,0.0003119282,9.7906652576,-0.0041028916,0.0002086841,-0.1745234950,0.0000977796
557667.9800229610,-0.0012479254,9.7953789369,0.0129943199,-0.0016152296,-0.1743498850,0.0001086272
557667.9900229611,-0.0008021768,9.7900535505,-0.0101946798,-0.0004969968,-0.1743932875,0.0001086272
557668.0000229609,0.0003908516,9.7941680994,0.0074894544,-0.0003341473,-0.1744258394,0.0001086272
557668.0100229610,0.0003688898,9.7938643649,0.0045916295,-0.0017346525,-0.1745994494,0.0000977796
557668.0200229610,-0.0001901664,9.7905134240,-0.0097420162,0.0001761142,-0.1744258394,0.0000869320
557668.0300229610,-0.0017043117,9.7953769916,0.0131506358,-0.0012786741,-0.1744041381,0.0000977796
557668.0400229610,-0.0003188401,9.7915788901,-0.0062325347,-0.0011049680,-0.1744583913,0.0001194748
557668.0500229610,0.0007958598,9.7920380703,-0.0001408163,0.0001218311,-0.1744583913,0.0001086272
557668.0600229610,-0.0003425501,9.7944682909,0.0113086816,-0.0017997923,-0.1743607356,0.0000977796
557668.0700229610,-0.0008156377,9.7894443455,-0.0121775856,-0.0001930112,-0.1744475406,0.0001086272
557668.0800229610,-0.0005139002,9.7952312029,0.0093276722,-0.0007249860,-0.1744041381,0.0001086272
557668.0900229610,0.0003480605,9.7926456077,0.0013883665,-0.0015609465,-0.1744041381,0.0000869320
557668.1000229610,0.0009124058,9.7915832674,-0.0048700968,0.0001869709,-0.1744258394,0.0000977796
557668.1100229610,-0.0001838940,9.7947735534,0.0122226109,-0.0015066633,-0.1743498850,0.0000977796
557668.1200229611,-0.0012621899,9.7903567979,-0.0103432438,-0.0007032727,-0.1744692419,0.0000869320
557668.1300229609,-0.0006927907,9.7935546563,0.0052104102,-0.0001821545,-0.1744800925,0.0001086272
557668.1400229610,0.0003908516,9.7941680994,0.0074894544,-0.0017889357,-0.1742847813,0.0000869320
557668.1500229610,0.0005681717,9.7897543325,-0.0106637672,0.0000892612,-0.1744258394,0.0000977796
557668.1600229610,-0.0015536475,9.7949202445,0.0126916286,-0.0010723981,-0.1745017937,0.0000869320
557668.1700229610,0.0000033175,9.7918841529,-0.0039472863,-0.0013003873,-0.1744258394,0.0000977796
557668.1800229610,0.0009428685,9.7915815314,-0.0010573528,0.0002086841,-0.1743715863,0.0000977796
557668.1900229610,0.0002700552,9.7947756375,0.0117612754,-0.0017237959,-0.1743498850,0.0000977796
557668.2000229610,-0.0003549724,9.7895985400,-0.0117237928,-0.0003232907,-0.1744258394,0.0000760844
557668.2100229610,-0.0024920373,9.7946128277,0.0096489063,-0.0004752835,-0.1744475406,0.0001086272
557668.2200229610,-0.0002504316,9.7934049080,0.0032239074,-0.0017129393,-0.1744366900,0.0000869320
557668.2300229610,0.0011905824,9.7906710924,-0.0086857967,0.0002086841,-0.1744692419,0.0001086272
557668.2400229611,-0.0006267619,9.7959907819,0.0146671313,-0.0013655271,-0.1744475406,0.0000977796
557668.2500229609,-0.0004805855,9.7908163246,-0.0077567123,-0.0009421186,-0.1744692419,0.0001194748
557668.2600229610,-0.0001125188,9.7934063665,0.0013925215,0.0000024082,-0.1744149888,0.0001086272
557668.2700229610,-0.0002003008,9.7952319674,0.0103927031,-0.0017889357,-0.1742522294,0.0000977796
557668.2800229610,0.0005620505,9.7894496953,-0.0115789652,-0.0001061581,-0.1744475406,0.0000977796
557668.2900229610,-0.0012577022,9.7950745080,0.0116215925,-0.0008118390,-0.1744475406,0.0000869320
557668.3000229610,-0.0005769257,9.7923374272,0.0000232516,-0.0014415235,-0.1743824369,0.0001086272
557668.3100229610,0.0001546053,9.7915798632,-0.0042537141,0.0001869709,-0.1744149888,0.0001194748
557668.3200229610,0.0014843280,9.7956959401,0.0114465245,-0.0016369429,-0.1743173331,0.0000977796
557668.3300229610,-0.0001969112,9.7900563294,-0.0108097937,-0.0004969968,-0.1744583913,0.0000977796
557668.3400229610,-0.0009697775,9.7941617775,0.0090259706,-0.0003232907,-0.1744258394,0.0001086272
557668.3500229610,-0.0002394077,9.7940142518,0.0049017937,-0.0017997923,-0.1743715863,0.0000869320
557668.3600229610,0.0007238246,9.7905172451,-0.0099021383,0.0001652576,-0.1744800925,0.0000977796
557668.3700229611,-0.0004755315,9.7950765234,0.0140554050,-0.0012461042,-0.1744800925,0.0000869320
557668.3800229609,-0.0015403092,9.7918789417,-0.0062222453,-0.0010506849,-0.1744041381,0.0001194748
557668.3900229610,-0.0004090877,9.7930996455,0.0023099781,0.0000566913,-0.1743715863,0.0001194748
557668.4000229610,0.0008674149,9.7949313599,0.0102311726,-0.0017889357,-0.1742956319,0.0001086272
557668.4100229610,0.0011777164,9.7899093605,-0.0106687724,-0.0000953015,-0.1743824369,0.0000869320
557668.4200229610,-0.0006390903,9.7944665543,0.0123787874,-0.0008335523,-0.1743390344,0.0000869320
557668.4300229610,-0.0016623527,9.7921815649,-0.0022555833,-0.0014740934,-0.1743390344,0.0001086272
557668.4400229610,-0.0007636648,9.7914237930,-0.0047037007,0.0002195408,-0.1744800925,0.0001086272
557668.4500229610,0.0008905952,9.7952350250,0.0132815073,-0.0016152296,-0.1744366900,0.0000869320
557668.4600229610,0.0002662198,9.7905153693,-0.0098983321,-0.0005512799,-0.1743932875,0.0000760844
557668.4700229610,-0.0012889892,9.7927888957,0.0065877242,-0.0002798642,-0.1745126444,0.0001086272
557668.4800229610,-0.0010027345,9.7935536835,0.0046029086,-0.0017889357,-0.1744149888,0.0000977796
557668.4900229611,0.0010361194,9.7896031259,-0.0094475651,0.0001435444,-0.1744800925,0.0001086272
557668.5000229609,0.0010504698,9.7955402180,0.0143479464,-0.0012135343,-0.1744583913,0.0000977796
557668.5100229610,0.0001411157,9.7906656739,-0.0063892692,-0.0010941114,-0.1744041381,0.0000977796
557668.5200229610,-0.0016397960,9.7923327725,0.0006421718,0.0001001178,-0.1744692419,0.0001086272
557668.5300229610,-0.0007952521,9.7947711217,0.0120751761,-0.0017997923,-0.1744041381,0.0000977796
557668.5400229610,0.0008713994,9.7896031950,-0.0109713939,-0.0002147244,-0.1744149888,0.0001086272
557668.5500229610,0.0007215388,9.7944728761,0.0108422711,-0.0005947064,-0.1743824369,0.0000977796
557668.5600229610,-0.0011802918,9.7930970052,0.0012487534,-0.0016260862,-0.1743607356,0.0000977796
557668.5700229610,-0.0012414179,9.7909655863,-0.0074452794,0.0002412540,-0.1744692419,0.0001086272
557668.5800229610,-0.0007763222,9.7952275220,0.0146680512,-0.0014523802,-0.1743498850,0.0001303224
557668.5900229610,0.0015011785,9.7911295071,-0.0077730664,-0.0008661222,-0.1743715863,0.0001086272
557668.6000229610,0.0000539573,9.7926437322,0.0027634918,0.0000132648,-0.1745234950,0.0000869320
557668.6100229610,-0.0006665498,9.7940106400,0.0087183439,-0.0018432188,-0.1743715863,0.0000869320
557668.6200229611,-0.0008088929,9.7899014402,-0.0111098081,-0.0000735882,-0.1745126444,0.0001086272
557668.6300229609,-0.0000313304,9.7950791630,0.0123739914,-0.0008444089,-0.1744583913,0.0001086272
557668.6400229610,0.0007934515,9.7923431935,-0.0002931865,-0.0015066633,-0.1744041381,0.0000869320
557668.6500229610,-0.0006202544,9.7915774312,-0.0057724679,0.0002629673,-0.1744800925,0.0001086272
557668.6600229610,-0.0010832055,9.7953788678,0.0145181487,-0.0015826597,-0.1744366900,0.0001086272
557668.6700229610,-0.0004922330,9.7900545233,-0.0095871782,-0.0006598462,-0.1743932875,0.0000869320
557668.6800229610,0.0003719218,9.7937116991,0.0048965793,-0.0001821545,-0.1743498850,0.0001194748
557668.6900229610,-0.0003779728,9.7935553514,0.0064279508,-0.0018215056,-0.1744149888,0.0000977796
557668.7000229610,-0.0012604051,9.7898992172,-0.0103434531,0.0000675479,-0.1743715863,0.0001194748
557668.7100229610,-0.0007757560,9.7947700107,0.0145153322,-0.0010181150,-0.1743390344,0.0001194748
557668.7200229610,0.0013852849,9.7920417518,-0.0027385571,-0.0012895307,-0.1742956319,0.0000977796
557668.7300229620,0.0001643533,9.7915793077,-0.0030336360,0.0002086841,-0.1745343456,0.0000977796
557668.7400229620,-0.0015621771,9.7949207305,0.0116240603,-0.0017129393,-0.1744366900,0.0000760844
557668.7500229620,-0.0004977592,9.7895973592,-0.0105024460,-0.0003884305,-0.1743715863,0.0000977796
557668.7600229620,0.0004158454,9.7943191681,0.0106922291,-0.0003884305,-0.1744258394,0.0000977796
557668.7700229620,0.0003682376,9.7934069230,0.0042864007,-0.0017672224,-0.1744909431,0.0000977796
557668.7800229620,-0.0011072466,9.7900522999,-0.0101921423,0.0002521106,-0.1745560469,0.0001194748
557668.7900229620,-0.0007756700,9.7956849639,0.0149732800,-0.0012678175,-0.1744041381,0.0001194748
557668.8000229620,-0.0003072786,9.7914257382,-0.0048600166,-0.0011158246,-0.1743715863,0.0000869320
557668.8100229620,0.0003309727,9.7923415955,-0.0008994193,0.0001435444,-0.1745126444,0.0001194748
557668.8200229621,0.0002548956,9.7955389665,0.0102365266,-0.0017563658,-0.1744041381,0.0000760844
557668.8300229619,-0.0015685355,9.7897456480,-0.0107985146,-0.0002798642,-0.1744149888,0.0001086272
557668.8400229620,-0.0007946572,9.7946185948,0.0120751063,-0.0005838498,-0.1743932875,0.0001194748
557668.8500229620,0.0012627037,9.7931068707,0.0015334732,-0.0016477995,-0.1743715863,0.0000869320
557668.8600229620,0.0008818858,9.7909750345,-0.0089881393,0.0002738239,-0.1745126444,0.0001086272
557668.8700229620,-0.0015371260,9.7956817681,0.0151321335,-0.0014632368,-0.1744149888,0.0000977796
557668.8800229620,-0.0004696476,9.7905107153,-0.0065367738,-0.0009204053,-0.1744800925,0.0001086272
557668.8900229620,-0.0004018054,9.7927942444,0.0030723873,0.0000132648,-0.1745234950,0.0000869320
557668.9000229620,-0.0000545107,9.7947754980,0.0093236568,-0.0018432188,-0.1743607356,0.0001086272
557668.9100229620,-0.0006563580,9.7899020655,-0.0111110768,-0.0000735882,-0.1744149888,0.0001086272
557668.9200229620,-0.0010917924,9.7947693851,0.0131452819,-0.0007792691,-0.1744475406,0.0001194748
557668.9300229620,0.0004889479,9.7918844317,-0.0004433681,-0.0014632368,-0.1743064825,0.0000977796
557668.9400229621,0.0001582895,9.7918846393,-0.0036435355,0.0002086841,-0.1743932875,0.0000977796
557668.9500229619,-0.0003297127,9.7949250384,0.0131390079,-0.0016260862,-0.1743715863,0.0000760844
557668.9600229620,-0.0006423308,9.7900537591,-0.0092808899,-0.0005295667,-0.1743498850,0.0001194748
557668.9700229620,0.0002449755,9.7937096156,0.0081005529,-0.0003558606,-0.1744366900,0.0001086272
557668.9800229620,0.0006703041,9.7938658237,0.0041315628,-0.0017237959,-0.1742847813,0.0001086272
557668.9900229620,0.0002734735,9.7899049839,-0.0092885721,0.0001652576,-0.1744475406,0.0000977796
557669.0000229620,-0.0007793255,9.7956851722,0.0145157508,-0.0012461042,-0.1744692419,0.0000869320
557669.0100229620,-0.0003115864,9.7909685047,-0.0056227747,-0.0010072584,-0.1746428519,0.0001194748
557669.0200229620,0.0006567572,9.7923416656,0.0016907091,0.0000349781,-0.1744258394,0.0000977796
557669.0300229620,-0.0000539158,9.7946229710,0.0093235870,-0.0018432188,-0.1744692419,0.0000977796
557669.0400229620,-0.0003476613,9.7895981233,-0.0108087343,-0.0001170148,-0.1744149888,0.0001086272
557669.0500229620,-0.0017068347,9.7944621773,0.0123876685,-0.0006924161,-0.1744475406,0.0001086272
557669.0600229620,-0.0001266033,9.7926447040,-0.0007429639,-0.0015392332,-0.1744800925,0.0001086272
557669.0700229621,0.0007537210,9.7909730205,-0.0059366754,0.0002412540,-0.1744692419,0.0000869320
557669.0800229619,-0.0003131912,9.7956865620,0.0155795129,-0.0015718031,-0.1743173331,0.0000869320
557669.0900229620,-0.0009449350,9.7903573541,-0.0088206837,-0.0006707028,-0.1744366900,0.0001194748
557669.1000229620,-0.0005347868,9.7934024770,0.0058191107,-0.0001604413,-0.1744366900,0.0001086272
557669.1100229620,0.0002340663,9.7943202093,0.0070332636,-0.0018323622,-0.1742847813,0.0000977796
557669.1200229620,0.0005669532,9.7897544019,-0.0108162769,0.0001001178,-0.1744583913,0.0000977796
557669.1300229620,-0.0023052982,9.7955264619,0.0143758586,-0.0010181150,-0.1744258394,0.0000977796
557669.1400229620,-0.0002877825,9.7914246272,-0.0024198605,-0.0012895307,-0.1743607356,0.0000869320
557669.1500229620,0.0007860544,9.7914286570,-0.0016661929,0.0002195408,-0.1745560469,0.0001086272
557669.1600229620,0.0007331289,9.7946247087,0.0123674385,-0.0017563658,-0.1743173331,0.0001086272
557669.1700229620,-0.0003616025,9.7903613829,-0.0121809733,-0.0004210004,-0.1744583913,0.0000977796
557669.1800229620,-0.0020296446,9.7936994726,0.0097971913,-0.0003775739,-0.1744258394,0.0001194748
557669.1900229621,0.0003663955,9.7932545350,0.0039813115,-0.0016803694,-0.1744583913,0.0001086272
557669.2000229619,0.0018037253,9.7902159433,-0.0085385712,0.0002195408,-0.1745017937,0.0000977796
557669.2100229620,-0.0006250058,9.7952282167,0.0145142728,-0.0013763838,-0.1744475406,0.0000869320
557669.2200229620,-0.0018424044,9.7911150566,-0.0062200566,-0.0009204053,-0.1744692419,0.0001194748
557669.2300229620,-0.0011693539,9.7927913958,0.0024686920,-0.0000410183,-0.1744366900,0.0001086272
557669.2400229620,0.0013103402,9.7943241002,0.0080919508,-0.0017672224,-0.1743390344,0.0000869320
557669.2500229620,0.0004290404,9.7897529434,-0.0089848911,-0.0000084485,-0.1744149888,0.0001086272
557669.2600229620,-0.0010759518,9.7947684824,0.0151279087,-0.0009529752,-0.1743607356,0.0000869320
557669.2700229620,-0.0012011785,9.7912682792,-0.0022598081,-0.0012895307,-0.1743607356,0.0001303224
557669.2800229620,0.0019923352,9.7915869499,-0.0033538804,0.0001544010,-0.1744149888,0.0000977796
557669.2900229620,0.0004292776,9.7946233887,0.0125224857,-0.0017237959,-0.1744366900,0.0000869320
557669.3000229620,-0.0007935899,9.7906630332,-0.0088218129,-0.0004535703,-0.1743607356,0.0001194748
557669.3100229620,-0.0021754920,9.7935459732,0.0105609391,-0.0004101437,-0.1744692419,0.0001194748
557669.3200229621,0.0005054981,9.7929509397,0.0021497861,-0.0016477995,-0.1744583913,0.0000977796
557669.3300229619,0.0016585014,9.7902149014,-0.0076222439,0.0001869709,-0.1745343456,0.0000977796
557669.3400229620,-0.0007634849,9.7956842695,0.0164983776,-0.0013763838,-0.1744583913,0.0000869320
557669.3500229620,-0.0027637351,9.7908066677,-0.0071276422,-0.0008769788,-0.1744692419,0.0001194748
557669.3600229620,0.0006537826,9.7931043002,0.0016910579,-0.0000084485,-0.1744583913,0.0001303224
557669.3700229620,0.0029997857,9.7941778264,0.0094505128,-0.0018106489,-0.1743607356,0.0000869320
557669.3800229620,-0.0007948371,9.7903581183,-0.0091269719,-0.0000627316,-0.1744692419,0.0000869320
557669.3900229620,-0.0036769512,9.7949107962,0.0142344885,-0.0007792691,-0.1744366900,0.0001411700
557669.4000229620,-0.0002992866,9.7921877479,-0.0034870800,-0.0014089536,-0.1744258394,0.0001086272
557669.4100229620,0.0022803173,9.7912841882,-0.0056442037,0.0002195408,-0.1744583913,0.0001086272
557669.4200229620,0.0004506732,9.7953846345,0.0155730297,-0.0016477995,-0.1744475406,0.0000760844
557669.4300229620,-0.0029242333,9.7903490172,-0.0083466608,-0.0005512799,-0.1743715863,0.0001086272
557669.4400229621,-0.0008392617,9.7932486995,0.0058215785,-0.0002472943,-0.1743824369,0.0001303224
557669.4500229619,0.0017417614,9.7944799612,0.0048855094,-0.0018106489,-0.1744583913,0.0000977796
557669.4600229620,0.0010434878,9.7902126780,-0.0082272080,0.0001218311,-0.1744149888,0.0000977796
557669.4700229620,-0.0016848442,9.7950708962,0.0154381427,-0.0010506849,-0.1744366900,0.0000869320
557669.4800229620,-0.0010790489,9.7918806092,-0.0057685222,-0.0012243909,-0.1745017937,0.0000977796
557669.4900229620,-0.0001309398,9.7918824861,-0.0016583712,0.0001435444,-0.1743824369,0.0001086272
557669.5000229620,0.0002981383,9.7953840092,0.0155742984,-0.0017672224,-0.1743932875,0.0000977796
557669.5100229620,-0.0001871631,9.7900557738,-0.0095897157,-0.0002907208,-0.1744258394,0.0001086272
557669.5200229620,-0.0005182366,9.7944689849,0.0084122649,-0.0004644269,-0.1743064825,0.0001303224
557669.5300229620,-0.0002620504,9.7929480910,0.0015460908,-0.0016803694,-0.1744366900,0.0001086272
557669.5400229620,-0.0004769299,9.7908161163,-0.0072991830,0.0001869709,-0.1744800925,0.0001086272
557669.5500229620,0.0003006039,9.7956888547,0.0160319672,-0.0013763838,-0.1744909431,0.0000977796
557669.5600229620,0.0005913807,9.7903629819,-0.0074607832,-0.0008769788,-0.1744909431,0.0001086272
557669.5700229621,-0.0013231074,9.7927908400,0.0023174510,0.0000024082,-0.1744475406,0.0001086272
557669.5800229619,-0.0021912179,9.7947668135,0.0091889093,-0.0018215056,-0.1744692419,0.0000977796
557669.5900229620,0.0005791096,9.7894487231,-0.0094438286,0.0000024082,-0.1744800925,0.0001086272
557669.6000229620,0.0010443773,9.7955405652,0.0135853976,-0.0008335523,-0.1744258394,0.0000869320
557669.6100229620,-0.0012035295,9.7921833713,-0.0021068798,-0.0014523802,-0.1744475406,0.0000977796
557669.6200229620,-0.0015251495,9.7911156128,-0.0046974965,0.0002738239,-0.1744692419,0.0001303224
557669.6300229620,0.0004464227,9.7955373697,0.0151155701,-0.0016803694,-0.1743607356,0.0000977796
557669.6400229620,0.0005840123,9.7897534298,-0.0086811403,-0.0005295667,-0.1743932875,0.0001194748
557669.6500229620,-0.0008440784,9.7938589460,0.0055168380,-0.0001821545,-0.1744583913,0.0000977796
557669.6600229620,-0.0012985938,9.7943143732,0.0061308925,-0.0018432188,-0.1743390344,0.0001086272
557669.6700229620,-0.0010962801,9.7900516750,-0.0088195545,0.0001218311,-0.1744149888,0.0001303224
557669.6800229620,0.0004610161,9.7952315521,0.0167930380,-0.0010506849,-0.1743824369,0.0001303224
557669.6900229621,0.0018348976,9.7912816180,-0.0041152999,-0.0012678175,-0.1744041381,0.0000977796
557669.7000229619,-0.0002865066,9.7920345266,-0.0019620522,0.0001869709,-0.1744366900,0.0001194748
557669.7100229620,-0.0018453138,9.7949182301,0.0143717734,-0.0017455092,-0.1743715863,0.0001411700
557669.7200229620,0.0001111619,9.7895999297,-0.0106600307,-0.0003341473,-0.1744366900,0.0001194748
557669.7300229620,0.0010089259,9.7943226413,0.0085520175,-0.0003775739,-0.1744800925,0.0001086272
557669.7400229620,0.0008258996,9.7940187676,0.0045878931,-0.0017563658,-0.1744041381,0.0000977796
557669.7500229620,-0.0012439409,9.7900507720,-0.0082082467,0.0001761142,-0.1745343456,0.0001194748
557669.7600229620,-0.0007762936,9.7955325064,0.0148207005,-0.0012786741,-0.1744041381,0.0000977796
557669.7700229620,-0.0006233436,9.7911201282,-0.0063827163,-0.0010398282,-0.1744258394,0.0001194748
557669.7800229620,-0.0004127433,9.7930998538,0.0018524488,0.0000566913,-0.1743824369,0.0001086272
557669.7900229620,-0.0001936420,9.7947741089,0.0110025328,-0.0017563658,-0.1743715863,0.0000977796
557669.8000229630,-0.0008112439,9.7908165323,-0.0109568798,-0.0001170148,-0.1744258394,0.0001194748
557669.8100229630,-0.0004840897,9.7947720251,0.0128351874,-0.0007141294,-0.1743498850,0.0001086272
557669.8200229630,-0.0002687666,9.7927959807,0.0006309625,-0.0015718031,-0.1742956319,0.0001086272
557669.8300229630,0.0010569774,9.7911268674,-0.0060916528,0.0002629673,-0.1745017937,0.0001194748
557669.8400229630,-0.0000129954,9.7956880903,0.0149669363,-0.0015500898,-0.1744041381,0.0000977796
557669.8500229630,-0.0000376315,9.7905140493,-0.0097432849,-0.0007032727,-0.1744475406,0.0001086272
557669.8600229630,-0.0015952201,9.7933976834,0.0067430504,-0.0000844449,-0.1744583913,0.0001194748
557669.8700229630,-0.0005182366,9.7944689849,0.0084122649,-0.0018323622,-0.1743824369,0.0000869320
557669.8800229630,0.0007219825,9.7903648571,-0.0102072276,0.0000458347,-0.1744800925,0.0001086272
557669.8900229631,-0.0007720431,9.7953797712,0.0152781600,-0.0009746885,-0.1743932875,0.0001194748
557669.9000229629,-0.0009021725,9.7915748614,-0.0028722451,-0.0013763838,-0.1744258394,0.0001086272
557669.9100229630,-0.0002980968,9.7918826941,-0.0034872195,0.0002629673,-0.1744583913,0.0001303224
557669.9200229630,0.0004384881,9.7953853289,0.0140479321,-0.0017020826,-0.1742956319,0.0000977796
557669.9300229630,0.0001208813,9.7892943898,-0.0095926019,-0.0004535703,-0.1744041381,0.0000977796
557669.9400229630,-0.0014231604,9.7937021821,0.0093345871,-0.0003232907,-0.1744258394,0.0001086272
557669.9500229630,-0.0002443104,9.7937095452,0.0041391054,-0.0017455092,-0.1743173331,0.0001086272
557669.9600229630,-0.0003401783,9.7914276131,-0.0089777801,0.0001652576,-0.1744149888,0.0001194748
557669.9700229630,0.0002993568,9.7953839398,0.0157268081,-0.0012243909,-0.1744041381,0.0001194748
557669.9800229630,0.0004535252,9.7909714922,-0.0053240989,-0.0010506849,-0.1743932875,0.0001194748
557669.9900229630,-0.0010290614,9.7921827467,0.0006370271,0.0001326877,-0.1743932875,0.0001194748
557670.0000229630,-0.0004999017,9.7950779121,0.0110052098,-0.0018106489,-0.1744366900,0.0000977796
557670.0100229630,0.0004138807,9.7905162723,-0.0105096399,-0.0001821545,-0.1748273125,0.0001194748
557670.0200229631,0.0002828639,9.7949274006,0.0134389525,-0.0007032727,-0.1744692419,0.0001086272
557670.0300229630,-0.0001198585,9.7931017987,0.0003248137,-0.0015066633,-0.1744692419,0.0001303224
557670.0400229630,-0.0010803248,9.7912707099,-0.0062263305,0.0002412540,-0.1743932875,0.0001086272
557670.0500229630,-0.0001674011,9.7952300925,0.0145104665,-0.0015609465,-0.1744583913,0.0001303224
557670.0600229630,0.0002917798,9.7902089267,-0.0068482765,-0.0006707028,-0.1743498850,0.0001411700
557670.0700229630,0.0003901420,9.7931006887,0.0068789271,-0.0001061581,-0.1743715863,0.0001086272
557670.0800229630,0.0000760338,9.7941674043,0.0062719138,-0.0018323622,-0.1743607356,0.0000869320
557670.0900229630,-0.0014153770,9.7898987308,-0.0106472038,0.0000566913,-0.1743498850,0.0001303224
557670.1000229630,-0.0000045232,9.7950776354,0.0157292061,-0.0010506849,-0.1744366900,0.0001194748
557670.1100229630,0.0010911529,9.7917348919,-0.0015160811,-0.0012243909,-0.1743715863,0.0001194748
557670.1200229630,0.0004773291,9.7914276147,-0.0021211847,0.0002195408,-0.1744149888,0.0000977796
557670.1300229630,-0.0015682983,9.7946160933,0.0107088622,-0.0017346525,-0.1744692419,0.0001086272
557670.1400229631,0.0001160646,9.7899046364,-0.0098973424,-0.0003450040,-0.1743932875,0.0001086272
557670.1500229629,0.0004316859,9.7943182654,0.0126748560,-0.0005404233,-0.1744475406,0.0001194748
557670.1600229630,0.0005000292,9.7931037443,0.0015398168,-0.0015718031,-0.1743715863,0.0001086272
557670.1700229630,-0.0004745216,9.7905109930,-0.0071468128,0.0001869709,-0.1744258394,0.0001194748
557670.1800229630,-0.0016799129,9.7956805873,0.0163534803,-0.0014632368,-0.1744149888,0.0001086272
557670.1900229630,0.0001489929,9.7902077459,-0.0056269297,-0.0007684125,-0.1744475406,0.0001194748
557670.2000229630,0.0011387607,9.7926471370,0.0048897473,-0.0000301617,-0.1744258394,0.0001086272
557670.2100229630,-0.0009837760,9.7943150682,0.0073484331,-0.0017997923,-0.1743824369,0.0000977796
557670.2200229630,-0.0009517084,9.7895952750,-0.0100411105,0.0000024082,-0.1743607356,0.0001194748
557670.2300229630,-0.0010734287,9.7956832967,0.0158908761,-0.0010072584,-0.1744258394,0.0001303224
557670.2400229630,0.0009453341,9.7918863769,-0.0005996840,-0.0013003873,-0.1743824369,0.0001303224
557670.2500229630,0.0009135669,9.7909732292,-0.0050228856,0.0002521106,-0.1744583913,0.0000977796
557670.2600229630,-0.0018556854,9.7947663281,0.0129991158,-0.0017129393,-0.1743932875,0.0001303224
557670.2700229631,-0.0000303778,9.7899036639,-0.0091335249,-0.0004318570,-0.1744692419,0.0001194748
557670.2800229630,0.0016336589,9.7940193248,0.0102244104,-0.0003232907,-0.1744583913,0.0001194748
557670.2900229630,0.0006758017,9.7940180035,0.0048941813,-0.0017997923,-0.1743498850,0.0001086272
557670.3000229630,-0.0011017490,9.7902044797,-0.0094295237,0.0002195408,-0.1745668975,0.0001086272
557670.3100229630,-0.0010600825,9.7950725641,0.0172631849,-0.0012243909,-0.1744366900,0.0001303224
557670.3200229630,0.0013632944,9.7914330329,-0.0057890313,-0.0010398282,-0.1744909431,0.0000977796
557670.3300229630,0.0012546831,9.7920398767,0.0000078873,0.0001544010,-0.1744583913,0.0001086272
557670.3400229630,0.0005836833,9.7950813864,0.0129789555,-0.0018215056,-0.1743824369,0.0000977796
557670.3500229630,-0.0018754474,9.7895920094,-0.0111010664,-0.0001712979,-0.1743932875,0.0001194748
557670.3600229630,-0.0003321784,9.7946201929,0.0126813392,-0.0006164197,-0.1742956319,0.0001303224
557670.3700229630,0.0012669255,9.7926491511,0.0018382834,-0.0015826597,-0.1743932875,0.0000977796
557670.3800229630,0.0004438058,9.7912770321,-0.0063915277,0.0002629673,-0.1743498850,0.0001194748
557670.3900229631,-0.0010765467,9.7949210093,0.0151279785,-0.0015066633,-0.1744041381,0.0000977796
557670.4000229629,-0.0013940388,9.7900500078,-0.0079019584,-0.0007249860,-0.1744366900,0.0001086272
557670.4100229630,0.0008386223,9.7932555775,0.0058076223,-0.0000953015,-0.1744475406,0.0001194748
557670.4200229630,0.0016208503,9.7938675617,0.0085467333,-0.0018323622,-0.1744041381,0.0001086272
557670.4300229630,-0.0004861691,9.7897491917,-0.0089772787,0.0000024082,-0.1744366900,0.0001194748
557670.4400229630,-0.0016854391,9.7952234231,0.0154382125,-0.0009312620,-0.1744583913,0.0001194748
557670.4500229630,0.0004663912,9.7917332241,-0.0033411232,-0.0013112440,-0.1744475406,0.0001303224
557670.4600229630,0.0010685962,9.7915836843,-0.0044138362,0.0002195408,-0.1744692419,0.0001086272
557670.4700229630,-0.0001577391,9.7943145839,0.0152725968,-0.0016695127,-0.1744583913,0.0001086272
557670.4800229630,-0.0018528621,9.7900482014,-0.0080506620,-0.0004535703,-0.1743607356,0.0001194748
557670.4900229630,0.0005627966,9.7932526605,0.0094703940,-0.0003232907,-0.1743607356,0.0001086272
557670.5000229630,0.0012785730,9.7934109524,0.0036687493,-0.0017889357,-0.1742847813,0.0001086272
557670.5100229630,0.0011942093,9.7903658997,-0.0083809167,0.0001869709,-0.1743932875,0.0001086272
557670.5200229631,-0.0018282260,9.7952222424,0.0166595593,-0.0012461042,-0.1744475406,0.0001303224
557670.5300229630,-0.0004616843,9.7909677405,-0.0053164864,-0.0009746885,-0.1743715863,0.0001194748
557670.5400229630,0.0017208173,9.7920412664,0.0010716494,0.0000458347,-0.1744800925,0.0001086272
557670.5500229630,0.0005635349,9.7946250555,0.0102335706,-0.0018106489,-0.1743932875,0.0000977796
557670.5600229630,-0.0009339971,9.7900517448,-0.0076007451,-0.0001061581,-0.1744366900,0.0001086272
557670.5700229630,-0.0017037454,9.7949194803,0.0129979168,-0.0007792691,-0.1744692419,0.0001303224
557670.5800229630,0.0010820571,9.7921928893,-0.0024309304,-0.0013872404,-0.1744041381,0.0000977796
557670.5900229630,0.0006249900,9.7914285178,-0.0027324924,0.0001869709,-0.1745234950,0.0001086272
557670.6000229630,0.0001565699,9.7953827590,0.0169481550,-0.0016369429,-0.1744475406,0.0000977796
557670.6100229630,-0.0017076095,9.7903542277,-0.0088143400,-0.0004535703,-0.1744258394,0.0000977796
557670.6200229630,-0.0005232540,9.7929443407,0.0070389795,-0.0003667172,-0.1744475406,0.0001303224
557670.6300229630,0.0014353583,9.7932588425,0.0041249401,-0.0017346525,-0.1743715863,0.0001086272
557670.6400229631,0.0009171938,9.7906680364,-0.0047180056,0.0001761142,-0.1744149888,0.0000977796
557670.6500229629,-0.0004609094,9.7950756901,0.0158855221,-0.0012243909,-0.1744041381,0.0001194748
557670.6600229630,-0.0007741225,9.7903569378,-0.0065343061,-0.0009529752,-0.1744258394,0.0001194748
557670.6700229630,-0.0001101678,9.7924912744,0.0012395932,0.0000132648,-0.1744258394,0.0001303224
557670.6800229630,0.0014969933,9.7943227812,0.0123609553,-0.0018432188,-0.1743390344,0.0000977796
557670.6900229630,-0.0003378846,9.7899025522,-0.0094360069,-0.0000735882,-0.1745343456,0.0001194748
557670.7000229630,-0.0004890211,9.7941623340,0.0119198498,-0.0007249860,-0.1743607356,0.0001194748
557670.7100229630,0.0004889766,9.7921894161,-0.0002907188,-0.0015066633,-0.1744149888,0.0001086272
557670.7200229630,-0.0001420497,9.7903581890,-0.0037942054,0.0002303974,-0.1744800925,0.0001194748
557670.7300229630,0.0009119621,9.7956912864,0.0161794020,-0.0015283766,-0.1743824369,0.0000977796
557670.7400229630,-0.0006459290,9.7906639362,-0.0094331207,-0.0006272763,-0.1744909431,0.0001303224
557670.7500229630,-0.0016037784,9.7930931851,0.0055228329,-0.0001930112,-0.1744258394,0.0001194748
557670.7600229630,0.0007050172,9.7937113526,0.0084017662,-0.0018215056,-0.1744041381,0.0001086272
557670.7700229631,0.0004351616,9.7900575806,-0.0080696930,0.0001435444,-0.1743390344,0.0001303224
557670.7800229630,-0.0013870855,9.7950725634,0.0145205467,-0.0010941114,-0.1743607356,0.0000977796
557670.7900229630,-0.0007569773,9.7912709189,-0.0039412216,-0.0011483945,-0.1742956319,0.0001194748
557670.8000229630,0.0000374644,9.7921871931,0.0004756362,0.0001544010,-0.1743824369,0.0001194748
557670.8100229630,0.0010400408,9.7947783473,0.0126699903,-0.0017455092,-0.1743824369,0.0000977796
557670.8200229630,0.0008799003,9.7892977245,-0.0100564749,-0.0002472943,-0.1744366900,0.0001194748
557670.8300229630,-0.0003377334,9.7938580443,0.0116134221,-0.0005729932,-0.1744041381,0.0001303224
557670.8400229630,0.0003608978,9.7931023552,0.0032186929,-0.0015935163,-0.1743932875,0.0001086272
557670.8500229630,0.0003033700,9.7903607592,-0.0053231091,0.0002629673,-0.1744692419,0.0001086272
557670.8600229630,0.0006019896,9.7953853292,0.0154192512,-0.0014415235,-0.1744366900,0.0000869320
557670.8700229630,-0.0006398652,9.7903586047,-0.0088232212,-0.0007684125,-0.1745234950,0.0001194748
557670.8800229640,-0.0006867555,9.7929443404,0.0056676604,-0.0001170148,-0.1745234950,0.0001303224
557670.8900229640,-0.0000497513,9.7935552826,0.0093230987,-0.0017997923,-0.1744800925,0.0001086272
557670.9000229640,0.0010361767,9.7902130947,-0.0091422665,0.0000566913,-0.1744366900,0.0001303224
557670.9100229640,0.0007550907,9.7949284432,0.0152652634,-0.0009746885,-0.1743824369,0.0001194748
557670.9200229640,-0.0007526122,9.7923381212,-0.0028731650,-0.0013112440,-0.1744366900,0.0000977796
557670.9300229640,-0.0004378230,9.7920338319,-0.0018082737,0.0002412540,-0.1743715863,0.0001194748
557670.9400229640,0.0004427672,9.7955375780,0.0146580409,-0.0016586561,-0.1743932875,0.0001086272
557670.9500229640,0.0007237959,9.7902122607,-0.0100547876,-0.0004101437,-0.1744583913,0.0001194748
557670.9600229640,-0.0002004442,9.7937070454,0.0096294567,-0.0004210004,-0.1744366900,0.0001086272
557670.9700229639,-0.0005378761,9.7929451740,0.0052088624,-0.0017020826,-0.1743498850,0.0001086272
557670.9800229640,-0.0009266860,9.7900513281,-0.0066856866,0.0001761142,-0.1744475406,0.0001303224
557670.9900229640,0.0013658539,9.7950834018,0.0154127680,-0.0012786741,-0.1743498850,0.0000977796
557671.0000229640,0.0008995398,9.7908215355,-0.0068530724,-0.0008661222,-0.1743498850,0.0000869320
557671.0100229640,-0.0013109510,9.7924851612,0.0036898993,-0.0000193051,-0.1748164618,0.0001303224
557671.0200229640,-0.0003425501,9.7944682909,0.0113086816,-0.0018215056,-0.1744041381,0.0001194748
557671.0300229640,0.0004266033,9.7897530822,-0.0092899106,-0.0000301617,-0.1744366900,0.0001303224
557671.0400229640,0.0016598998,9.7944753085,0.0137323441,-0.0008444089,-0.1744583913,0.0001194748
557671.0500229640,0.0007879826,9.7924959982,-0.0009031558,-0.0013872404,-0.1743498850,0.0000869320
557671.0600229640,-0.0021206097,9.7917222472,-0.0025570059,0.0002955372,-0.1744366900,0.0001086272
557671.0700229640,-0.0001570581,9.7950770101,0.0157304748,-0.0015935163,-0.1742956319,0.0001086272
557671.0800229640,0.0013333979,9.7909772576,-0.0097544943,-0.0005947064,-0.1743607356,0.0001194748
557671.0900229641,0.0008453671,9.7937126722,0.0068753999,-0.0002147244,-0.1744475406,0.0001303224
557671.1000229639,-0.0009843996,9.7941626108,0.0071958535,-0.0018432188,-0.1743607356,0.0001086272
557671.1100229640,-0.0009468057,9.7898999817,-0.0092784222,0.0001652576,-0.1744583913,0.0001194748
557671.1200229640,0.0012090686,9.7952355117,0.0149565772,-0.0009638318,-0.1744909431,0.0000977796
557671.1300229640,0.0019929588,9.7917394074,-0.0032013008,-0.0013546705,-0.1743715863,0.0000869320
557671.1400229640,-0.0008924245,9.7915743059,-0.0016521670,0.0002521106,-0.1745017937,0.0001194748
557671.1500229640,-0.0013657759,9.7949188560,0.0171131428,-0.0017020826,-0.1744149888,0.0001086272
557671.1600229640,0.0007267991,9.7897546106,-0.0099024871,-0.0004427136,-0.1743824369,0.0001411700
557671.1700229640,0.0008574948,9.7931020090,0.0080951990,-0.0002907208,-0.1744366900,0.0001303224
557671.1800229640,0.0006928322,9.7937120469,0.0068766687,-0.0017563658,-0.1742956319,0.0001303224
557671.1900229640,-0.0006295222,9.7902055222,-0.0076032129,0.0001761142,-0.1743498850,0.0001086272
557671.2000229640,-0.0004700339,9.7952287031,0.0148180235,-0.0011266813,-0.1743607356,0.0001194748
557671.2100229640,0.0015237639,9.7915856991,-0.0047226620,-0.0011592512,-0.1743173331,0.0001194748
557671.2200229639,0.0015718806,9.7914304641,0.0012251488,0.0001544010,-0.1744258394,0.0001086272
557671.2300229640,0.0004323095,9.7944707229,0.0128274355,-0.0017455092,-0.1743607356,0.0001086272
557671.2400229640,-0.0008022055,9.7897485661,-0.0103473290,-0.0001930112,-0.1744366900,0.0001086272
557671.2500229640,-0.0000369140,9.7940120301,0.0111534251,-0.0005838498,-0.1744692419,0.0001194748
557671.2600229640,0.0009673533,9.7928000803,0.0026034394,-0.0015826597,-0.1743824369,0.0000977796
557671.2700229640,0.0004644918,9.7909708673,-0.0039515110,0.0002629673,-0.1744692419,0.0001194748
557671.2800229640,-0.0004627515,9.7949233021,0.0155804328,-0.0014632368,-0.1744041381,0.0001086272
557671.2900229640,-0.0009449637,9.7900523697,-0.0089733330,-0.0007901258,-0.1745234950,0.0001303224
557671.3000229640,0.0006817796,9.7927977187,0.0050461330,-0.0001061581,-0.1744692419,0.0001086272
557671.3100229640,0.0013268044,9.7944756550,0.0102271572,-0.0017672224,-0.1744041381,0.0000977796
557671.3200229640,-0.0004880112,9.7895968037,-0.0092823680,0.0000675479,-0.1744366900,0.0000977796
557671.3300229640,-0.0015396490,9.7947669537,0.0143691661,-0.0008986921,-0.1743824369,0.0001303224
557671.3400229641,0.0009549962,9.7909708683,0.0001624462,-0.0014198103,-0.1743498850,0.0001303224
557671.3500229639,0.0009312496,9.7911247145,-0.0027351694,0.0002955372,-0.1744258394,0.0001411700
557671.3600229640,0.0009040848,9.7961492144,0.0154170625,-0.0016477995,-0.1743607356,0.0000977796
557671.3700229640,-0.0009529270,9.7895953445,-0.0101936203,-0.0005621366,-0.1744800925,0.0001194748
557671.3800229640,-0.0012797500,9.7938558203,0.0082658198,-0.0001604413,-0.1744149888,0.0001194748
557671.3900229640,0.0008624262,9.7937117001,0.0090105365,-0.0017889357,-0.1743390344,0.0001086272
557671.4000229640,0.0005766726,9.7894488620,-0.0097488481,0.0001869709,-0.1744800925,0.0001194748
557671.4100229640,-0.0001673438,9.7958400613,0.0148157651,-0.0010506849,-0.1746971050,0.0001194748
557671.4200229640,-0.0001303735,9.7914249748,-0.0018110902,-0.0013221006,-0.1744366900,0.0001411700
557671.4300229640,-0.0001352476,9.7914252525,-0.0024211292,0.0002955372,-0.1744366900,0.0001194748
557671.4400229640,0.0004476699,9.7958422847,0.0154207292,-0.0017129393,-0.1743390344,0.0001086272
557671.4500229640,0.0011795585,9.7900617485,-0.0103636831,-0.0004427136,-0.1743824369,0.0001303224
557671.4600229640,-0.0008148342,9.7938572795,0.0091770722,-0.0002364377,-0.1743715863,0.0001194748
557671.4700229639,-0.0006665498,9.7940106400,0.0087183439,-0.0018323622,-0.1743715863,0.0001086272
557671.4800229640,0.0014876603,9.7899103333,-0.0100612708,0.0001869709,-0.1743607356,0.0001303224
557671.4900229640,-0.0000050895,9.7955351467,0.0158819251,-0.0010506849,-0.1744475406,0.0001194748
557671.5000229640,0.0003120715,9.7921901796,-0.0033396452,-0.0013003873,-0.1743390344,0.0000977796
557671.5100229640,-0.0001236574,9.7915770851,-0.0008959619,0.0002629673,-0.1744800925,0.0001303224
557671.5200229640,-0.0004627802,9.7946183177,0.0154277835,-0.0016803694,-0.1743824369,0.0001086272
557671.5300229640,0.0017878847,9.7902168460,-0.0105211980,-0.0003775739,-0.1743715863,0.0001086272
557671.5400229640,0.0001064104,9.7932507152,0.0096267100,-0.0003775739,-0.1744475406,0.0001086272
557671.5500229640,-0.0011461736,9.7930950609,0.0055190267,-0.0017237959,-0.1744149888,0.0001303224
557671.5600229640,-0.0001560769,9.7902064954,-0.0056243922,0.0002086841,-0.1745017937,0.0001303224
557671.5700229640,0.0007539009,9.7952334970,0.0152654029,-0.0012678175,-0.1745234950,0.0001194748
557671.5800229640,0.0007561293,9.7906678972,-0.0057843051,-0.0009529752,-0.1744258394,0.0001194748
557671.5900229641,-0.0016141787,9.7926362987,0.0039975260,0.0000349781,-0.1744475406,0.0001086272
557671.6000229639,-0.0000393224,9.7943171534,0.0110010548,-0.0017346525,-0.1743607356,0.0001411700
557671.6100229640,0.0011831567,9.7894515714,-0.0102114524,-0.0000627316,-0.1743932875,0.0001194748
557671.6200229640,0.0005843069,9.7952338439,0.0131315350,-0.0007901258,-0.1744583913,0.0001194748
557671.6300229640,0.0004993482,9.7923413181,0.0010819388,-0.0014740934,-0.1743824369,0.0001303224
557671.6400229640,-0.0009022012,9.7912698770,-0.0030248943,0.0002521106,-0.1745126444,0.0001086272
557671.6500229640,0.0007471561,9.7947764023,0.0141976253,-0.0015392332,-0.1743932875,0.0001303224
557671.6600229640,0.0012003018,9.7903655525,-0.0076183679,-0.0005947064,-0.1743932875,0.0001086272
557671.6700229640,0.0002448895,9.7927946624,0.0076426051,-0.0001712979,-0.1744800925,0.0001194748
557671.6800229640,-0.0000606892,9.7938608920,0.0081031602,-0.0018106489,-0.1743824369,0.0001086272
557671.6900229640,-0.0010895639,9.7902037853,-0.0079044262,0.0001218311,-0.1743932875,0.0001303224
557671.7000229640,0.0007648388,9.7949278877,0.0164853415,-0.0010723981,-0.1744800925,0.0001411700
557671.7100229640,0.0012357245,9.7912784920,-0.0027376371,-0.0011483945,-0.1743824369,0.0000977796
557671.7200229639,-0.0004226634,9.7912705029,-0.0002835249,0.0001761142,-0.1745343456,0.0001086272
557671.7300229640,-0.0003272757,9.7949248995,0.0134440275,-0.0017563658,-0.1743824369,0.0001086272
557671.7400229640,0.0002764768,9.7894473337,-0.0091362716,-0.0002581509,-0.1743498850,0.0001303224
557671.7500229640,0.0016373718,9.7946290853,0.0109872382,-0.0005187100,-0.1744475406,0.0001086272
557671.7600229640,0.0011266043,9.7929528158,0.0035172990,-0.0016260862,-0.1743498850,0.0001303224
557671.7700229640,-0.0013799543,9.7908116703,-0.0057664730,0.0002521106,-0.1744692419,0.0001194748
557671.7800229640,-0.0007646747,9.7959893233,0.0164985171,-0.0014198103,-0.1743715863,0.0001086272
557671.7900229640,0.0019611629,9.7905212752,-0.0077771516,-0.0007249860,-0.1744583913,0.0001303224
557671.8000229640,0.0014438879,9.7932583564,0.0051925084,-0.0000193051,-0.1744258394,0.0001194748
557671.8100229640,-0.0005128250,9.7937062115,0.0087169356,-0.0018757887,-0.1744366900,0.0001086272
557671.8200229640,-0.0006374855,9.7897484970,-0.0088235002,0.0000458347,-0.1744258394,0.0001303224
557671.8300229640,0.0012224435,9.7949297635,0.0164815352,-0.0008878354,-0.1744475406,0.0001194748
557671.8400229641,0.0013852275,9.7914317830,-0.0030438556,-0.0013329572,-0.1744041381,0.0001194748
557671.8500229639,0.0003150748,9.7917325294,-0.0031873447,0.0002086841,-0.1744692419,0.0001086272
557671.8600229640,-0.0001624984,9.7955347992,0.0152731548,-0.0015935163,-0.1744366900,0.0001303224
557671.8700229640,-0.0003281652,9.7895970123,-0.0083685781,-0.0004427136,-0.1743824369,0.0001411700
557671.8800229640,0.0020887693,9.7934113707,0.0096102862,-0.0003232907,-0.1743715863,0.0001303224
557671.8900229640,0.0005275173,9.7938646430,0.0053529096,-0.0017563658,-0.1743824369,0.0001194748
557671.9000229640,-0.0010835287,9.7895934693,-0.0074471759,0.0001761142,-0.1744149888,0.0001086272
557671.9100229640,-0.0004572252,9.7953804662,0.0164957006,-0.0012135343,-0.1744692419,0.0001303224
557671.9200229640,0.0007591899,9.7908202158,-0.0053267061,-0.0009529752,-0.1744692419,0.0001086272
557671.9300229640,0.0023352648,9.7925010011,0.0018293325,0.0000675479,-0.1743824369,0.0001303224
557671.9400229640,0.0002670233,9.7949283033,0.0114563257,-0.0017997923,-0.1744692419,0.0001086272
557671.9500229650,-0.0009394947,9.7898995650,-0.0083633637,-0.0000735882,-0.1744692419,0.0001303224
557671.9600229650,-0.0000203638,9.7950785381,0.0137465793,-0.0007901258,-0.1744258394,0.0001411700
557671.9700229650,0.0013925959,9.7920413352,-0.0018234986,-0.0013872404,-0.1744041381,0.0000869320
557671.9800229650,0.0004748634,9.7911227692,-0.0025788535,0.0001761142,-0.1744800925,0.0001194748
557671.9900229650,-0.0003077223,9.7955337573,0.0161894821,-0.0015500898,-0.1743932875,0.0001303224
557672.0000229650,0.0002692804,9.7906676879,-0.0094407331,-0.0004427136,-0.1744258394,0.0001194748
557672.0100229650,0.0001009415,9.7934035199,0.0090167407,-0.0003775739,-0.1746537025,0.0001303224
557672.0200229650,0.0002193582,9.7934060894,0.0047451987,-0.0016586561,-0.1743173331,0.0001086272
557672.0300229650,-0.0003043327,9.7903581193,-0.0050130147,0.0001869709,-0.1743607356,0.0001194748
557672.0400229651,0.0006026132,9.7955377867,0.0155718307,-0.0012786741,-0.1743607356,0.0001194748
557672.0500229649,0.0005950649,9.7906677580,-0.0068506047,-0.0008878354,-0.1743715863,0.0001194748
557672.0600229650,0.0008282220,9.7927986912,0.0042823155,0.0000784046,-0.1744149888,0.0001303224
557672.0700229650,0.0010442626,9.7943206276,0.0129748005,-0.0018215056,-0.1743824369,0.0001411700
557672.0800229650,-0.0000443476,9.7903619390,-0.0106584132,-0.0000627316,-0.1744258394,0.0001194748
557672.0900229650,0.0007404973,9.7952342608,0.0135877956,-0.0007901258,-0.1744041381,0.0001303224
557672.1000229650,0.0009551395,9.7924957902,0.0009256926,-0.0014632368,-0.1744475406,0.0000977796
557672.1100229650,0.0001758861,9.7911211715,-0.0018137672,0.0002738239,-0.1744149888,0.0001194748
557672.1200229650,-0.0000075265,9.7955352856,0.0155769056,-0.0015609465,-0.1744149888,0.0000977796
557672.1300229650,0.0001136276,9.7899047752,-0.0102023619,-0.0004969968,-0.1745451962,0.0001411700
557672.1400229650,0.0000973146,9.7937087126,0.0087118607,-0.0003232907,-0.1745343456,0.0001194748
557672.1500229650,0.0008465856,9.7937126028,0.0070279097,-0.0017129393,-0.1744041381,0.0000977796
557672.1600229651,0.0010526409,9.7903646495,-0.0070070602,0.0001869709,-0.1744692419,0.0001303224
557672.1700229649,0.0001382923,9.7953838006,0.0146605086,-0.0012026777,-0.1743173331,0.0001194748
557672.1800229650,0.0004505506,9.7917341268,-0.0053237501,-0.0010506849,-0.1743173331,0.0001303224
557672.1900229650,0.0003601882,9.7920349446,0.0026081656,0.0001652576,-0.1744583913,0.0001303224
557672.2000229650,0.0018215879,9.7946279052,0.0149512232,-0.0017997923,-0.1743064825,0.0001086272
557672.2100229650,0.0011752507,9.7896045150,-0.0111264412,-0.0001604413,-0.1744909431,0.0001194748
557672.2200229650,-0.0007964706,9.7947711911,0.0119226663,-0.0005295667,-0.1744475406,0.0001303224
557672.2300229650,0.0002169212,9.7934062283,0.0044401792,-0.0016803694,-0.1743932875,0.0000977796
557672.2400229650,0.0015096221,9.7902140678,-0.0071634459,0.0003172504,-0.1744366900,0.0001303224
557672.2500229650,0.0015270044,9.7959984942,0.0169370153,-0.0013221006,-0.1743607356,0.0000977796
557672.2600229650,-0.0006087502,9.7908143106,-0.0047052484,-0.0009529752,-0.1743932875,0.0001194748
557672.2700229650,-0.0013182047,9.7930955466,0.0030801393,0.0001218311,-0.1745560469,0.0001303224
557672.2800229650,0.0017850900,9.7952399571,0.0106812290,-0.0018215056,-0.1744149888,0.0001086272
557672.2900229651,0.0024053354,9.7902189305,-0.0096112145,-0.0000953015,-0.1744583913,0.0001303224
557672.3000229649,0.0002981096,9.7950790248,0.0154216491,-0.0007575559,-0.1744258394,0.0001194748
557672.3100229650,-0.0008625280,9.7920300812,0.0023132960,-0.0014089536,-0.1742956319,0.0001086272
557672.3200229650,-0.0003078448,9.7918832496,-0.0047072976,0.0002738239,-0.1744692419,0.0001411700
557672.3300229650,0.0018295225,9.7947799460,0.0160188613,-0.0015826597,-0.1744041381,0.0001086272
557672.3400229650,0.0013485289,9.7899089442,-0.0083823947,-0.0005838498,-0.1744041381,0.0001194748
557672.3500229650,-0.0005158856,9.7935538929,0.0082593366,-0.0001712979,-0.1744583913,0.0001303224
557672.3600229650,-0.0012790977,9.7943132622,0.0085710486,-0.0018215056,-0.1743498850,0.0001194748
557672.3700229650,0.0018006360,9.7897586403,-0.0091488195,0.0001435444,-0.1743607356,0.0001303224
557672.3800229650,0.0024385010,9.7953924854,0.0161665751,-0.0010289716,-0.1744583913,0.0001194748
557672.3900229650,-0.0001273129,9.7915772934,-0.0013534912,-0.0012135343,-0.1743824369,0.0001194748
557672.4000229650,-0.0014957906,9.7923338838,-0.0004266652,0.0002303974,-0.1744692419,0.0001303224
557672.4100229651,0.0005885286,9.7947761242,0.0134363453,-0.0016803694,-0.1744800925,0.0001411700
557672.4200229649,0.0020996707,9.7903702068,-0.0096086072,-0.0003775739,-0.1744475406,0.0001303224
557672.4300229650,0.0015036807,9.7941699071,0.0131234343,-0.0004318570,-0.1744366900,0.0000760844
557672.4400229650,-0.0002340248,9.7929464939,0.0050538152,-0.0015609465,-0.1743390344,0.0000977796
557672.4500229650,-0.0012329457,9.7903551314,-0.0066830096,0.0001869709,-0.1743824369,0.0001303224
557672.4600229650,0.0010571286,9.7950823595,0.0149577762,-0.0013546705,-0.1743607356,0.0001194748
557672.4700229650,0.0022802886,9.7909792038,-0.0057968530,-0.0008009824,-0.1744258394,0.0000869320
557672.4800229650,0.0000716973,9.7934051864,0.0053565065,-0.0000735882,-0.1745234950,0.0001303224
557672.4900229650,-0.0001985447,9.7944694022,0.0102398445,-0.0017997923,-0.1744041381,0.0001194748
557672.5000229650,0.0001178780,9.7897520400,-0.0097449024,0.0000458347,-0.1743607356,0.0001303224
557672.5100229650,0.0018240536,9.7949327507,0.0154088920,-0.0008769788,-0.1744258394,0.0001194748
557672.5200229650,0.0017031347,9.7918897811,-0.0012160668,-0.0013329572,-0.1744041381,0.0000977796
557672.5300229650,-0.0012011211,9.7918782480,-0.0019545095,0.0002521106,-0.1744366900,0.0001303224
557672.5400229651,-0.0000117769,9.7956880208,0.0151194461,-0.0016586561,-0.1744041381,0.0001303224
557672.5500229649,0.0010422406,9.7899077631,-0.0085323670,-0.0004427136,-0.1744692419,0.0001303224
557672.5600229650,0.0017892831,9.7944772531,0.0108333900,-0.0003558606,-0.1743824369,0.0001194748
557672.5700229650,0.0005244567,9.7937123244,0.0048953105,-0.0016695127,-0.1744366900,0.0001086272
557672.5800229650,-0.0015471400,9.7905068939,-0.0077479707,0.0002195408,-0.1744475406,0.0001303224
557672.5900229650,-0.0004517276,9.7955326459,0.0172583192,-0.0012786741,-0.1744366900,0.0001303224
557672.6000229650,0.0018263107,9.7906721353,-0.0054881668,-0.0009204053,-0.1743607356,0.0001086272
557672.6100229650,0.0005139990,9.7926454692,0.0030647051,0.0000566913,-0.1744258394,0.0001303224
557672.6200229650,0.0004292776,9.7946233887,0.0125224857,-0.0017672224,-0.1743173331,0.0001194748
557672.6300229650,-0.0000242566,9.7902083011,-0.0082183268,-0.0001170148,-0.1744475406,0.0001194748
557672.6400229650,0.0016550545,9.7947805706,0.0132749544,-0.0006924161,-0.1744041381,0.0001303224
557672.6500229650,0.0021693263,9.7925011396,0.0001529939,-0.0014740934,-0.1744149888,0.0000977796
557672.6600229651,-0.0004402887,9.7917289864,-0.0022659425,0.0002738239,-0.1744692419,0.0001194748
557672.6700229649,0.0006202958,9.7956892720,0.0178595468,-0.0015066633,-0.1743824369,0.0001303224
557672.6800229650,0.0001222145,9.7905142580,-0.0088294951,-0.0006055631,-0.1744909431,0.0001194748
557672.6900229650,0.0011559345,9.7938661025,0.0076354810,-0.0002364377,-0.1744149888,0.0001194748
557672.7000229650,0.0003895758,9.7935582000,0.0070316461,-0.0017237959,-0.1744475406,0.0001303224
557672.7100229650,-0.0006246195,9.7905102289,-0.0068405245,0.0001435444,-0.1743715863,0.0001194748
557672.7200229650,0.0007569328,9.7950808312,0.0155703527,-0.0011158246,-0.1743173331,0.0001303224
557672.7300229650,0.0006091494,9.7914294205,-0.0047151193,-0.0010289716,-0.1744692419,0.0000977796
557672.7400229650,0.0003535581,9.7927977875,0.0021509851,0.0001001178,-0.1743498850,0.0001303224
557672.7500229650,0.0005933740,9.7944708621,0.0138937350,-0.0017672224,-0.1743064825,0.0001411700
557672.7600229650,0.0011820242,9.7903665941,-0.0099060143,-0.0001170148,-0.1743932875,0.0001194748
557672.7700229650,0.0017972178,9.7946292939,0.0119010280,-0.0006055631,-0.1743498850,0.0001194748
557672.7800229650,0.0003517447,9.7929503838,0.0019985451,-0.0015609465,-0.1744692419,0.0001086272
557672.7900229651,-0.0004440589,9.7905092571,-0.0033340689,0.0003172504,-0.1744692419,0.0001303224
557672.8000229649,0.0010681812,9.7959966878,0.0167883118,-0.0014632368,-0.1743824369,0.0001303224
557672.8100229650,0.0013485863,9.7905189130,-0.0080770962,-0.0007684125,-0.1744909431,0.0001194748
557672.8200229650,0.0003743301,9.7934065758,0.0050489495,-0.0000844449,-0.1744366900,0.0001194748
557672.8300229650,0.0002687794,9.7941657382,0.0113034671,-0.0018106489,-0.1744583913,0.0001194748
557672.8400229650,0.0002826267,9.7900569553,-0.0080684243,0.0000892612,-0.1745343456,0.0001194748
557672.8500229650,0.0010589994,9.7955397320,0.0154155147,-0.0009312620,-0.1744692419,0.0001303224
557672.8600229650,0.0018519854,9.7915856303,-0.0018275140,-0.0013221006,-0.1744041381,0.0001303224
557672.8700229650,-0.0004329777,9.7917285697,-0.0013508839,0.0002521106,-0.1743824369,0.0001303224
557672.8800229650,0.0001541329,9.7953828979,0.0166431354,-0.0016586561,-0.1742847813,0.0001520176
557672.8900229650,0.0016414423,9.7902158735,-0.0097573805,-0.0003775739,-0.1743824369,0.0001194748
557672.9000229650,0.0013158091,9.7941712955,0.0087019201,-0.0003667172,-0.1743498850,0.0001194748
557672.9100229651,0.0000753815,9.7937099625,0.0059666851,-0.0016803694,-0.1744692419,0.0001086272
557672.9200229649,0.0001483980,9.7903602728,-0.0056268599,0.0002412540,-0.1744800925,0.0001411700
557672.9300229650,0.0012212537,9.7952348173,0.0164816748,-0.0011918211,-0.1744583913,0.0001411700
557672.9400229650,0.0015078947,9.7912816173,-0.0068579381,-0.0010398282,-0.1744258394,0.0001194748
557672.9500229650,0.0006683473,9.7924934981,0.0032158764,0.0000784046,-0.1744258394,0.0001303224
557672.9600229650,-0.0003206169,9.7944670410,0.0140538572,-0.0017672224,-0.1744692419,0.0001194748
557672.9700229650,0.0010306504,9.7897559305,-0.0100575344,-0.0001061581,-0.1743932875,0.0001194748
557672.9800229650,0.0015061751,9.7947797370,0.0137337524,-0.0006164197,-0.1744583913,0.0001194748
557672.9900229650,0.0011266043,9.7929528158,0.0035172990,-0.0015500898,-0.1743824369,0.0000977796
557673.0000229650,-0.0004452774,9.7905093265,-0.0034865786,0.0002955372,-0.1743824369,0.0001194748
557673.0100229650,0.0001504487,9.7950781218,0.0160329569,-0.0014632368,-0.1746645531,0.0001411700
557673.0200229660,0.0015059665,9.7902142761,-0.0076209752,-0.0006924161,-0.1743390344,0.0001303224
