t(s),acc_x,acc_y,acc_z,gyro_x,gyro_y,gyro_z
557721.0000230100,0.0263977051,9.7982788089,-0.0210571289,-0.0008029514,0.0000651042,0.0000000000
557721.0100230100,0.0280761719,9.7967529300,-0.0277709961,0.0009223090,0.0000108507,0.0000000000
557721.0200230100,0.0294494629,9.8001098636,-0.0091552734,-0.0007486979,0.0000325521,-0.0000108507
557721.0300230100,0.0285339355,9.7956848148,-0.0334167480,-0.0000108507,0.0000542535,0.0000000000
557721.0400230100,0.0267028809,9.7985839847,-0.0164794922,0.0005533854,-0.0000000000,0.0000108507
557721.0500230100,0.0274658203,9.7991943363,-0.0154113770,-0.0010742187,0.0000434028,-0.0000108507
557721.0600230100,0.0294494629,9.7956848148,-0.0346374512,0.0007921007,0.0000217014,0.0000000000
557721.0700230100,0.0285339355,9.7996520999,-0.0085449219,-0.0003038194,0.0000325521,0.0000000000
557721.0800230100,0.0270080566,9.7966003421,-0.0270080566,-0.0005316840,0.0000325521,-0.0000217014
557721.0900230100,0.0276184082,9.7969055179,-0.0245666504,0.0008789062,0.0000217014,0.0000108507
557721.1000230100,0.0288391113,9.8002624515,-0.0117492676,-0.0010199653,0.0000434028,0.0000000000
557721.1100230101,0.0283813477,9.7952270511,-0.0338745117,0.0003797743,0.0000325521,0.0000108507
557721.1200230099,0.0274658203,9.8002624515,-0.0114440918,0.0001193576,0.0000217014,0.0000000000
557721.1300230100,0.0274658203,9.7981262210,-0.0213623047,-0.0008246528,0.0000217014,0.0000000000
557721.1400230100,0.0288391113,9.7964477542,-0.0300598145,0.0009982639,0.0000217014,0.0000000000
557721.1500230100,0.0283813477,9.8010253909,-0.0088500977,-0.0007378472,0.0000325521,0.0000108507
557721.1600230100,0.0270080566,9.7956848148,-0.0317382813,-0.0000976562,0.0000434028,0.0000108507
557721.1700230100,0.0277709961,9.7982788089,-0.0167846680,0.0006184896,0.0000325521,0.0000000000
557721.1800230100,0.0283813477,9.7996520999,-0.0149536133,-0.0010416667,0.0000434028,0.0000000000
557721.1900230100,0.0286865234,9.7958374027,-0.0337219238,0.0007161458,0.0000325521,0.0000000000
557721.2000230100,0.0274658203,9.7996520999,-0.0093078613,-0.0002170139,0.0000217014,-0.0000217014
557721.2100230100,0.0271606445,9.7973632816,-0.0257873535,-0.0005859375,0.0000434028,-0.0000108507
557721.2200230100,0.0289916992,9.7970581058,-0.0250244141,0.0009114583,0.0000434028,0.0000000000
557721.2300230101,0.0280761719,9.8002624515,-0.0097656250,-0.0009874132,0.0000325521,-0.0000108507
557721.2400230099,0.0277709961,9.7953796390,-0.0332641602,0.0002604167,-0.0000000000,0.0000108507
557721.2500230100,0.0280761719,9.7985839847,-0.0137329102,0.0002929687,0.0000325521,0.0000000000
557721.2600230100,0.0279235840,9.7982788089,-0.0210571289,-0.0009331597,0.0000434028,-0.0000108507
557721.2700230100,0.0283813477,9.7959899906,-0.0314331055,0.0009114583,0.0000325521,0.0000000000
557721.2800230100,0.0279235840,9.8001098636,-0.0080871582,-0.0006184896,0.0000325521,0.0000000000
557721.2900230100,0.0279235840,9.7959899906,-0.0309753418,-0.0001519097,0.0000217014,0.0000000000
557721.3000230100,0.0291442871,9.7978210452,-0.0193786621,0.0006510417,0.0000108507,0.0000000000
557721.3100230100,0.0285339355,9.7994995120,-0.0144958496,-0.0010742187,0.0000759549,0.0000000000
557721.3200230100,0.0273132324,9.7949218753,-0.0332641602,0.0006293403,0.0000217014,0.0000000000
557721.3300230100,0.0276184082,9.7999572757,-0.0100708008,-0.0000759549,0.0000434028,-0.0000217014
557721.3400230110,0.0282287598,9.7976684574,-0.0251770020,-0.0006835937,0.0000325521,0.0000000000
557721.3500230110,0.0292968750,9.7966003421,-0.0273132324,0.0009223090,0.0000217014,0.0000000000
557721.3600230110,0.0277709961,9.7998046878,-0.0082397461,-0.0009223090,0.0000651042,0.0000000000
557721.3700230110,0.0277709961,9.7947692874,-0.0328063965,0.0001736111,0.0000108507,0.0000108507
557721.3800230110,0.0286865234,9.7987365726,-0.0157165527,0.0004340278,0.0000217014,0.0000000000
557721.3900230110,0.0282287598,9.7988891605,-0.0183105469,-0.0010199653,0.0000434028,-0.0000108507
557721.4000230110,0.0280761719,9.7953796390,-0.0317382813,0.0008246528,0.0000108507,0.0000000000
557721.4100230110,0.0274658203,9.7999572757,-0.0079345703,-0.0004665799,0.0000434028,0.0000000000
557721.4200230110,0.0285339355,9.7962951663,-0.0289916992,-0.0002929687,0.0000217014,0.0000000000
557721.4300230111,0.0283813477,9.7973632816,-0.0218200684,0.0007486979,-0.0000000000,0.0000108507
557721.4400230109,0.0273132324,9.7994995120,-0.0122070313,-0.0010959201,0.0000434028,0.0000000000
557721.4500230110,0.0279235840,9.7949218753,-0.0343322754,0.0005316840,0.0000108507,0.0000108507
557721.4600230110,0.0282287598,9.7991943363,-0.0112915039,0.0000325521,0.0000434028,-0.0000217014
557721.4700230110,0.0279235840,9.7979736331,-0.0225830078,-0.0008029514,0.0000759549,-0.0000108507
557721.4800230110,0.0282287598,9.7964477542,-0.0279235840,0.0009548611,-0.0000000000,0.0000000000
557721.4900230110,0.0277709961,9.8004150394,-0.0086975098,-0.0008138021,0.0000434028,0.0000217014
557721.5000230110,0.0285339355,9.7950744632,-0.0329589844,0.0000434028,0.0000325521,0.0000108507
557721.5100230110,0.0283813477,9.7990417484,-0.0166320801,0.0004774306,-0.0000000000,0.0000000000
557721.5200230110,0.0285339355,9.7985839847,-0.0164794922,-0.0010525174,0.0000651042,-0.0000108507
557721.5300230110,0.0276184082,9.7953796390,-0.0323486328,0.0008355035,0.0000434028,0.0000000000
557721.5400230110,0.0276184082,9.8007202152,-0.0091552734,-0.0003689236,0.0000108507,0.0000000000
557721.5500230110,0.0285339355,9.7967529300,-0.0280761719,-0.0004448785,0.0000759549,-0.0000108507
557721.5600230111,0.0289916992,9.7970581058,-0.0230407715,0.0008138021,-0.0000000000,0.0000108507
557721.5700230110,0.0282287598,9.7996520999,-0.0108337402,-0.0010525174,0.0000325521,-0.0000108507
557721.5800230110,0.0268554688,9.7953796390,-0.0346374512,0.0004340278,0.0000542535,0.0000000000
557721.5900230110,0.0282287598,9.7993469241,-0.0122070313,0.0001736111,0.0000217014,0.0000000000
557721.6000230110,0.0277709961,9.7978210452,-0.0199890137,-0.0009006076,0.0000434028,0.0000000000
557721.6100230110,0.0289916992,9.7958374027,-0.0300598145,0.0009223090,0.0000217014,0.0000000000
557721.6200230110,0.0274658203,9.8007202152,-0.0086975098,-0.0006401910,0.0000325521,0.0000000000
557721.6300230110,0.0280761719,9.7959899906,-0.0317382813,-0.0001193576,0.0000217014,0.0000000000
557721.6400230110,0.0286865234,9.7981262210,-0.0196838379,0.0006293403,0.0000325521,0.0000000000
557721.6500230110,0.0280761719,9.7994995120,-0.0149536133,-0.0010525174,0.0000325521,-0.0000325521
557721.6600230110,0.0280761719,9.7953796390,-0.0331115723,0.0007052951,0.0000217014,0.0000000000
557721.6700230110,0.0276184082,9.8001098636,-0.0093078613,-0.0001953125,0.0000217014,0.0000108507
557721.6800230111,0.0276184082,9.7969055179,-0.0267028809,-0.0005967882,0.0000325521,0.0000000000
557721.6900230109,0.0291442871,9.7967529300,-0.0253295898,0.0009006076,0.0000217014,-0.0000108507
557721.7000230110,0.0282287598,9.8001098636,-0.0097656250,-0.0009765625,0.0000651042,0.0000108507
557721.7100230110,0.0274658203,9.7952270511,-0.0346374512,0.0002821181,0.0000217014,0.0000000000
557721.7200230110,0.0276184082,9.7990417484,-0.0132751465,0.0002929687,0.0000217014,0.0000000000
557721.7300230110,0.0282287598,9.7979736331,-0.0192260742,-0.0009548611,0.0000434028,-0.0000108507
557721.7400230110,0.0282287598,9.7959899906,-0.0305175781,0.0009006076,0.0000217014,0.0000000000
557721.7500230110,0.0280761719,9.8005676273,-0.0088500977,-0.0005967882,0.0000651042,0.0000000000
557721.7600230110,0.0276184082,9.7959899906,-0.0308227539,-0.0001953125,0.0000217014,0.0000000000
557721.7700230110,0.0277709961,9.7981262210,-0.0187683105,0.0006618924,-0.0000000000,0.0000000000
557721.7800230110,0.0282287598,9.7990417484,-0.0135803223,-0.0010850694,0.0000651042,-0.0000108507
557721.7900230110,0.0277709961,9.7944641116,-0.0338745117,0.0006618924,0.0000108507,0.0000000000
557721.8000230110,0.0283813477,9.8002624515,-0.0097656250,-0.0001519097,0.0000217014,0.0000000000
557721.8100230111,0.0280761719,9.7970581058,-0.0254821777,-0.0005967882,0.0000434028,0.0000000000
557721.8200230110,0.0289916992,9.7967529300,-0.0254821777,0.0008897569,0.0000108507,0.0000000000
557721.8300230110,0.0274658203,9.8002624515,-0.0102233887,-0.0009331597,0.0000759549,0.0000000000
557721.8400230110,0.0277709961,9.7958374027,-0.0343322754,0.0002712674,0.0000108507,0.0000000000
557721.8500230110,0.0280761719,9.7993469241,-0.0135803223,0.0002712674,0.0000217014,0.0000000000
557721.8600230110,0.0285339355,9.7984313968,-0.0196838379,-0.0009223090,0.0000434028,0.0000000000
557721.8700230110,0.0282287598,9.7961425784,-0.0315856934,0.0008680556,0.0000108507,0.0000000000
557721.8800230110,0.0276184082,9.8004150394,-0.0088500977,-0.0006184896,0.0000434028,0.0000000000
557721.8900230110,0.0283813477,9.7958374027,-0.0305175781,-0.0001953125,0.0000651042,0.0000108507
557721.9000230110,0.0288391113,9.7979736331,-0.0190734863,0.0006727431,0.0000217014,0.0000000000
557721.9100230110,0.0279235840,9.7998046878,-0.0137329102,-0.0010742187,0.0000434028,-0.0000108507
557721.9200230110,0.0276184082,9.7953796390,-0.0343322754,0.0006184896,0.0000325521,0.0000000000
557721.9300230111,0.0277709961,9.7998046878,-0.0091552734,-0.0000651042,0.0000217014,0.0000000000
557721.9400230109,0.0285339355,9.7972106937,-0.0244140625,-0.0007161458,0.0000434028,0.0000000000
557721.9500230110,0.0277709961,9.7966003421,-0.0273132324,0.0009331597,0.0000108507,0.0000000000
557721.9600230110,0.0270080566,9.7998046878,-0.0090026855,-0.0008897569,0.0000651042,0.0000108507
557721.9700230110,0.0280761719,9.7958374027,-0.0321960449,0.0001736111,0.0000434028,0.0000000000
557721.9800230110,0.0288391113,9.7990417484,-0.0157165527,0.0003689236,0.0000108507,0.0000000000
557721.9900230110,0.0280761719,9.7993469241,-0.0190734863,-0.0010091146,0.0000325521,-0.0000217014
557722.0000230110,0.0277709961,9.7955322269,-0.0311279297,0.0008463542,0.0000217014,0.0000108507
557722.0100230110,0.0276184082,9.8002624515,-0.0085449219,-0.0004557292,0.0000325521,0.0000000000
557722.0200230110,0.0285339355,9.7969055179,-0.0300598145,-0.0003689236,0.0000325521,-0.0000108507
557722.0300230110,0.0282287598,9.7976684574,-0.0216674805,0.0007812500,0.0000325521,0.0000108507
557722.0400230110,0.0276184082,9.7996520999,-0.0112915039,-0.0010742187,0.0000434028,0.0000000000
557722.0500230110,0.0282287598,9.7953796390,-0.0355529785,0.0005425347,0.0000434028,0.0000000000
557722.0600230111,0.0286865234,9.7998046878,-0.0123596191,0.0000976562,0.0000217014,0.0000000000
557722.0700230110,0.0279235840,9.7985839847,-0.0219726563,-0.0009006076,0.0000434028,-0.0000108507
557722.0800230110,0.0280761719,9.7967529300,-0.0288391113,0.0009982639,0.0000217014,0.0000000000
557722.0900230110,0.0277709961,9.8002624515,-0.0085449219,-0.0007595486,0.0000434028,0.0000108507
557722.1000230110,0.0279235840,9.7962951663,-0.0326538086,-0.0000976562,0.0000325521,0.0000108507
557722.1100230110,0.0282287598,9.7981262210,-0.0183105469,0.0005750868,-0.0000000000,0.0000000000
557722.1200230110,0.0273132324,9.7991943363,-0.0149536133,-0.0010525174,0.0000434028,0.0000000000
557722.1300230110,0.0279235840,9.7955322269,-0.0326538086,0.0007595486,0.0000108507,0.0000000000
557722.1400230110,0.0288391113,9.7998046878,-0.0086975098,-0.0002821181,0.0000434028,-0.0000217014
557722.1500230110,0.0280761719,9.7972106937,-0.0263977051,-0.0005750868,0.0000434028,-0.0000108507
557722.1600230110,0.0274658203,9.7969055179,-0.0245666504,0.0009548611,0.0000108507,0.0000000000
557722.1700230110,0.0280761719,9.8004150394,-0.0094604492,-0.0009982639,0.0000759549,0.0000108507
557722.1800230111,0.0285339355,9.7955322269,-0.0354003906,0.0002278646,0.0000217014,0.0000000000
557722.1900230109,0.0286865234,9.7988891605,-0.0148010254,0.0003906250,0.0000108507,0.0000000000
557722.2000230110,0.0273132324,9.7984313968,-0.0172424316,-0.0010199653,0.0000434028,0.0000000000
557722.2100230110,0.0277709961,9.7955322269,-0.0329589844,0.0008897569,0.0000108507,0.0000000000
557722.2200230110,0.0288391113,9.8004150394,-0.0090026855,-0.0004882812,0.0000434028,0.0000108507
557722.2300230110,0.0286865234,9.7962951663,-0.0288391113,-0.0003906250,0.0000325521,-0.0000108507
557722.2400230110,0.0283813477,9.7979736331,-0.0218200684,0.0008138021,0.0000108507,0.0000000000
557722.2500230110,0.0274658203,9.7994995120,-0.0117492676,-0.0010525174,0.0000434028,0.0000000000
557722.2600230110,0.0286865234,9.7956848148,-0.0354003906,0.0005316840,0.0000217014,0.0000000000
557722.2700230110,0.0288391113,9.7999572757,-0.0102233887,0.0000325521,0.0000217014,0.0000000000
557722.2800230110,0.0276184082,9.7978210452,-0.0224304199,-0.0008138021,0.0000651042,0.0000000000
557722.2900230110,0.0274658203,9.7967529300,-0.0296020508,0.0009657118,-0.0000000000,0.0000000000
557722.3000230110,0.0279235840,9.8007202152,-0.0091552734,-0.0008355035,0.0000759549,0.0000000000
557722.3100230111,0.0285339355,9.7955322269,-0.0320434570,0.0000217014,0.0000325521,0.0000000000
557722.3200230110,0.0274658203,9.7978210452,-0.0155639648,0.0005208333,0.0000108507,0.0000000000
557722.3300230110,0.0274658203,9.7978210452,-0.0158691406,-0.0010199653,0.0000434028,0.0000000000
557722.3400230110,0.0283813477,9.7956848148,-0.0335693359,0.0007812500,0.0000108507,0.0000000000
557722.3500230110,0.0285339355,9.8013305667,-0.0093078613,-0.0003580729,0.0000217014,-0.0000108507
557722.3600230110,0.0274658203,9.7970581058,-0.0270080566,-0.0004882812,0.0000651042,0.0000000000
557722.3700230110,0.0277709961,9.7966003421,-0.0233459473,0.0008680556,0.0000217014,0.0000000000
557722.3800230110,0.0285339355,9.7998046878,-0.0115966797,-0.0010416667,0.0000325521,-0.0000108507
557722.3900230110,0.0280761719,9.7946166995,-0.0340270996,0.0003797743,0.0000325521,0.0000000000
557722.4000230110,0.0279235840,9.7988891605,-0.0119018555,0.0002278646,0.0000217014,0.0000000000
557722.4100230120,0.0271606445,9.7984313968,-0.0207519531,-0.0009548611,0.0000434028,0.0000108507
557722.4200230120,0.0291442871,9.7956848148,-0.0315856934,0.0009331597,0.0000325521,0.0000217014
557722.4300230120,0.0292968750,9.8002624515,-0.0080871582,-0.0006293403,0.0000434028,0.0000000000
557722.4400230120,0.0271606445,9.7959899906,-0.0306701660,-0.0002387153,0.0000325521,0.0000000000
557722.4500230120,0.0270080566,9.7976684574,-0.0196838379,0.0007921007,0.0000217014,0.0000000000
557722.4600230120,0.0289916992,9.7998046878,-0.0128173828,-0.0010850694,0.0000325521,0.0000000000
557722.4700230120,0.0294494629,9.7946166995,-0.0346374512,0.0006076389,0.0000217014,0.0000000000
557722.4800230120,0.0277709961,9.7998046878,-0.0103759766,-0.0000325521,0.0000434028,0.0000108507
557722.4900230120,0.0262451172,9.7976684574,-0.0244140625,-0.0007595486,0.0000434028,0.0000000000
557722.5000230120,0.0285339355,9.7966003421,-0.0273132324,0.0009548611,0.0000108507,0.0000108507
557722.5100230119,0.0296020508,9.8001098636,-0.0086975098,-0.0009006076,0.0000434028,0.0000000000
557722.5200230120,0.0280761719,9.7955322269,-0.0329589844,0.0001736111,0.0000325521,0.0000000000
557722.5300230120,0.0270080566,9.7987365726,-0.0152587891,0.0004340278,0.0000217014,0.0000000000
557722.5400230120,0.0285339355,9.7990417484,-0.0187683105,-0.0010091146,0.0000434028,0.0000217014
557722.5500230120,0.0299072266,9.7952270511,-0.0309753418,0.0008789062,0.0000217014,0.0000000000
557722.5600230120,0.0276184082,9.8005676273,-0.0073242188,-0.0004665799,0.0000217014,-0.0000108507
557722.5700230120,0.0262451172,9.7962951663,-0.0289916992,-0.0004557292,0.0000434028,0.0000000000
557722.5800230120,0.0285339355,9.7969055179,-0.0230407715,0.0008463542,0.0000108507,0.0000000000
557722.5900230120,0.0299072266,9.7999572757,-0.0112915039,-0.0010633681,0.0000325521,0.0000000000
557722.6000230120,0.0279235840,9.7953796390,-0.0354003906,0.0004774306,0.0000108507,0.0000000000
557722.6100230120,0.0273132324,9.7999572757,-0.0122070313,0.0001736111,0.0000217014,0.0000108507
557722.6200230120,0.0282287598,9.7978210452,-0.0215148926,-0.0009765625,0.0000434028,0.0000108507
557722.6300230121,0.0292968750,9.7959899906,-0.0303649902,0.0009765625,0.0000217014,0.0000108507
557722.6400230119,0.0276184082,9.7998046878,-0.0068664551,-0.0006401910,0.0000434028,0.0000000000
557722.6500230120,0.0265502930,9.7958374027,-0.0308227539,-0.0002712674,0.0000325521,0.0000000000
557722.6600230120,0.0280761719,9.7973632816,-0.0224304199,0.0008029514,0.0000217014,0.0000108507
557722.6700230120,0.0300598145,9.8001098636,-0.0106811523,-0.0011284722,0.0000434028,0.0000000000
557722.6800230120,0.0292968750,9.7950744632,-0.0334167480,0.0006076389,0.0000108507,0.0000000000
557722.6900230120,0.0270080566,9.7996520999,-0.0109863281,0.0000217014,0.0000325521,0.0000108507
557722.7000230120,0.0274658203,9.7975158695,-0.0227355957,-0.0008355035,0.0000651042,0.0000000000
557722.7100230120,0.0289916992,9.7959899906,-0.0283813477,0.0009223090,0.0000108507,0.0000000000
557722.7200230120,0.0286865234,9.8002624515,-0.0076293945,-0.0007921007,0.0000325521,-0.0000108507
557722.7300230120,0.0273132324,9.7953796390,-0.0329589844,-0.0000217014,0.0000325521,0.0000000000
557722.7400230120,0.0271606445,9.7985839847,-0.0184631348,0.0006401910,-0.0000000000,0.0000000000
557722.7500230120,0.0285339355,9.7991943363,-0.0138854980,-0.0010850694,0.0000759549,0.0000000000
557722.7600230119,0.0289916992,9.7955322269,-0.0335693359,0.0007052951,0.0000217014,0.0000000000
557722.7700230120,0.0280761719,9.7998046878,-0.0090026855,-0.0001953125,0.0000325521,0.0000000000
557722.7800230120,0.0262451172,9.7973632816,-0.0263977051,-0.0006510417,0.0000434028,0.0000108507
557722.7900230120,0.0280761719,9.7967529300,-0.0268554688,0.0009223090,-0.0000000000,0.0000000000
557722.8000230120,0.0288391113,9.7999572757,-0.0096130371,-0.0009548611,0.0000434028,0.0000000000
557722.8100230120,0.0286865234,9.7950744632,-0.0321960449,0.0002929687,0.0000434028,-0.0000108507
557722.8200230120,0.0273132324,9.7988891605,-0.0137329102,0.0003146701,0.0000108507,0.0000108507
557722.8300230120,0.0271606445,9.7978210452,-0.0207519531,-0.0009657118,0.0000434028,0.0000000000
557722.8400230120,0.0291442871,9.7962951663,-0.0309753418,0.0008355035,0.0000217014,0.0000000000
557722.8500230120,0.0288391113,9.8007202152,-0.0073242188,-0.0005859375,0.0000217014,-0.0000108507
557722.8600230120,0.0273132324,9.7964477542,-0.0306701660,-0.0001844618,0.0000651042,0.0000000000
557722.8700230120,0.0271606445,9.7979736331,-0.0205993652,0.0007052951,0.0000108507,0.0000217014
557722.8800230121,0.0288391113,9.7999572757,-0.0131225586,-0.0010199653,0.0000325521,0.0000000000
557722.8900230119,0.0286865234,9.7943115238,-0.0331115723,0.0006293403,0.0000325521,0.0000000000
557722.9000230120,0.0286865234,9.7987365726,-0.0106811523,-0.0001302083,0.0000325521,0.0000000000
557722.9100230120,0.0279235840,9.7982788089,-0.0262451172,-0.0006618924,0.0000325521,0.0000000000
557722.9200230120,0.0263977051,9.7966003421,-0.0260925293,0.0008680556,0.0000108507,0.0000000000
557722.9300230120,0.0291442871,9.8002624515,-0.0085449219,-0.0008897569,0.0000434028,0.0000000000
557722.9400230120,0.0296020508,9.7953796390,-0.0332641602,0.0002821181,0.0000217014,0.0000000000
557722.9500230120,0.0276184082,9.7985839847,-0.0144958496,0.0003472222,0.0000217014,0.0000000000
557722.9600230120,0.0250244141,9.7981262210,-0.0195312500,-0.0009982639,0.0000651042,0.0000108507
557722.9700230120,0.0283813477,9.7958374027,-0.0306701660,0.0008789062,-0.0000000000,0.0000000000
557722.9800230120,0.0308227539,9.8001098636,-0.0086975098,-0.0005859375,0.0000434028,-0.0000108507
557722.9900230120,0.0277709961,9.7961425784,-0.0309753418,-0.0002387153,0.0000651042,0.0000000000
557723.0000230120,0.0262451172,9.7975158695,-0.0198364258,0.0007378472,-0.0000000000,0.0000000000
557723.0100230119,0.0276184082,9.7998046878,-0.0129699707,-0.0010525174,0.0000325521,0.0000217014
557723.0200230120,0.0311279297,9.7949218753,-0.0341796875,0.0006076389,0.0000325521,0.0000108507
557723.0300230120,0.0282287598,9.8004150394,-0.0115966797,-0.0001085069,0.0000325521,0.0000000000
557723.0400230120,0.0263977051,9.7979736331,-0.0238037109,-0.0007378472,0.0000434028,-0.0000108507
557723.0500230120,0.0282287598,9.7964477542,-0.0262451172,0.0009223090,0.0000217014,0.0000000000
557723.0600230120,0.0302124023,9.8001098636,-0.0090026855,-0.0008572049,0.0000325521,0.0000000000
557723.0700230120,0.0277709961,9.7953796390,-0.0337219238,0.0001519097,0.0000325521,0.0000000000
557723.0800230120,0.0268554688,9.7988891605,-0.0146484375,0.0003580729,0.0000325521,0.0000108507
557723.0900230120,0.0274658203,9.7985839847,-0.0178527832,-0.0009874132,0.0000325521,0.0000108507
557723.1000230120,0.0299072266,9.7956848148,-0.0312805176,0.0008789062,-0.0000000000,0.0000000000
557723.1100230120,0.0283813477,9.8002624515,-0.0090026855,-0.0005642361,0.0000325521,-0.0000217014
557723.1200230120,0.0263977051,9.7962951663,-0.0297546387,-0.0003363715,0.0001953125,-0.0000108507
557723.1300230121,0.0280761719,9.7975158695,-0.0198364258,0.0007921007,0.0005316840,0.0000217014
557723.1400230119,0.0315856934,9.7998046878,-0.0103759766,-0.0010525174,0.0026150174,0.0000108507
557723.1500230120,0.0311279297,9.7947692874,-0.0338745117,0.0005967882,0.0045464410,0.0000000000
557723.1600230120,0.0265502930,9.7999572757,-0.0123596191,0.0000434028,0.0053493924,0.0000000000
557723.1700230120,0.0268554688,9.7978210452,-0.0196838379,-0.0008246528,0.0066623264,0.0000000000
557723.1800230120,0.0299072266,9.7964477542,-0.0265502930,0.0009874132,0.0075195312,0.0000000000
557723.1900230120,0.0303649902,9.8008728031,-0.0102233887,-0.0006835937,0.0078667535,-0.0000108507
557723.2000230120,0.0282287598,9.7955322269,-0.0312805176,-0.0000108507,0.0090711806,0.0000000000
557723.2100230120,0.0254821777,9.7987365726,-0.0175476074,0.0006184896,0.0097330729,0.0000000000
557723.2200230120,0.0292968750,9.7991943363,-0.0128173828,-0.0010091146,0.0106770833,0.0000108507
557723.2300230120,0.0306701660,9.7952270511,-0.0323486328,0.0007812500,0.0115234375,0.0000000000
557723.2400230120,0.0292968750,9.8002624515,-0.0099182129,-0.0002495660,0.0121636285,-0.0000217014
557723.2500230120,0.0268554688,9.7972106937,-0.0238037109,-0.0005425347,0.0133138021,-0.0000108507
557723.2600230119,0.0277709961,9.7966003421,-0.0230407715,0.0009874132,0.0144205729,0.0000000000
557723.2700230120,0.0300598145,9.8002624515,-0.0112915039,-0.0008789062,0.0149088542,0.0000000000
557723.2800230120,0.0294494629,9.7952270511,-0.0332641602,0.0003580729,0.0161132812,0.0000000000
557723.2900230120,0.0280761719,9.7999572757,-0.0123596191,0.0003580729,0.0170247396,0.0000000000
557723.3000230120,0.0263977051,9.7976684574,-0.0178527832,-0.0009006076,0.0174913194,0.0000000000
557723.3100230120,0.0300598145,9.7952270511,-0.0314331055,0.0009440104,0.0187391493,0.0000000000
557723.3200230120,0.0309753418,9.7999572757,-0.0091552734,-0.0004774306,0.0195638021,-0.0000217014
557723.3300230120,0.0289916992,9.7964477542,-0.0268554688,-0.0001519097,0.0202907986,0.0000000000
557723.3400230120,0.0270080566,9.7981262210,-0.0189208984,0.0008355035,0.0214626736,0.0000000000
557723.3500230120,0.0277709961,9.7993469241,-0.0141906738,-0.0009331597,0.0220377604,0.0000000000
557723.3600230120,0.0317382813,9.7953796390,-0.0323486328,0.0006293403,0.0230360243,-0.0000108507
557723.3700230120,0.0299072266,9.7999572757,-0.0103759766,0.0000434028,0.0239691840,-0.0000108507
557723.3800230121,0.0250244141,9.7973632816,-0.0224304199,-0.0006401910,0.0244032118,0.0000000000
557723.3900230119,0.0297546387,9.7970581058,-0.0256347656,0.0009765625,0.0258246528,0.0000000000
557723.4000230120,0.0303649902,9.7998046878,-0.0105285645,-0.0006944444,0.0266710069,0.0000000000
557723.4100230120,0.0277709961,9.7953796390,-0.0326538086,0.0003146701,0.0270182292,-0.0000217014
557723.4200230120,0.0291442871,9.7993469241,-0.0119018555,0.0004774306,0.0289822049,-0.0000108507
557723.4300230120,0.0263977051,9.7981262210,-0.0187683105,-0.0008789062,0.0290256076,-0.0000108507
557723.4400230120,0.0296020508,9.7956848148,-0.0314331055,0.0010199653,0.0295789931,0.0000000000
557723.4500230120,0.0315856934,9.8008728031,-0.0071716309,-0.0004448785,0.0309570312,-0.0000325521
557723.4600230120,0.0282287598,9.7958374027,-0.0288391113,-0.0001302083,0.0314778646,-0.0000217014
557723.4700230120,0.0274658203,9.7973632816,-0.0190734863,0.0009223090,0.0324869792,0.0000108507
557723.4800230120,0.0296020508,9.7999572757,-0.0128173828,-0.0009440104,0.0337239583,-0.0000108507
557723.4900230130,0.0288391113,9.7950744632,-0.0329589844,0.0007269965,0.0339843750,-0.0000108507
557723.5000230130,0.0291442871,9.7993469241,-0.0094604492,0.0001302083,0.0353081597,-0.0000434028
557723.5100230130,0.0276184082,9.7979736331,-0.0230407715,-0.0006510417,0.0364583333,-0.0000217014
557723.5200230130,0.0286865234,9.7970581058,-0.0273132324,0.0011393229,0.0367838542,0.0000000000
557723.5300230130,0.0312805176,9.8002624515,-0.0080871582,-0.0006401910,0.0381293403,-0.0000217014
557723.5400230130,0.0296020508,9.7955322269,-0.0331115723,0.0001736111,0.0384982639,0.0000000000
557723.5500230130,0.0279235840,9.7984313968,-0.0158691406,0.0007595486,0.0393988715,-0.0000108507
557723.5600230130,0.0279235840,9.7987365726,-0.0141906738,-0.0009548611,0.0407226562,-0.0000217014
557723.5700230130,0.0296020508,9.7952270511,-0.0321960449,0.0009440104,0.0412326389,-0.0000217014
557723.5800230131,0.0297546387,9.7999572757,-0.0096130371,-0.0000542535,0.0420572917,-0.0000108507
557723.5900230129,0.0292968750,9.7972106937,-0.0253295898,-0.0004774306,0.0433268229,-0.0000217014
557723.6000230130,0.0276184082,9.7964477542,-0.0254821777,0.0011610243,0.0435438368,0.0000108507
557723.6100230130,0.0291442871,9.8004150394,-0.0073242188,-0.0007703993,0.0448242187,0.0000000000
557723.6200230130,0.0292968750,9.7949218753,-0.0329589844,0.0004665799,0.0458875868,0.0000000000
557723.6300230130,0.0280761719,9.7988891605,-0.0152587891,0.0005425347,0.0461263021,-0.0000325521
557723.6400230130,0.0285339355,9.7990417484,-0.0178527832,-0.0008463542,0.0475043403,-0.0000217014
557723.6500230130,0.0297546387,9.7956848148,-0.0302124023,0.0010959201,0.0484483507,-0.0000217014
557723.6600230130,0.0286865234,9.7998046878,-0.0097656250,-0.0002170139,0.0485026042,-0.0000217014
557723.6700230130,0.0302124023,9.7970581058,-0.0262451172,-0.0001736111,0.0503146701,-0.0000217014
557723.6800230130,0.0274658203,9.7973632816,-0.0216674805,0.0009874132,0.0507921007,0.0000000000
557723.6900230130,0.0282287598,9.7996520999,-0.0122070313,-0.0007812500,0.0517361111,-0.0000108507
557723.7000230131,0.0297546387,9.7947692874,-0.0318908691,0.0007269965,0.0529730903,-0.0000108507
557723.7100230129,0.0297546387,9.7996520999,-0.0123596191,0.0002278646,0.0533311632,-0.0000325521
557723.7200230130,0.0274658203,9.7972106937,-0.0219726563,-0.0005425347,0.0537109375,-0.0000108507
557723.7300230130,0.0288391113,9.7962951663,-0.0260925293,0.0011718750,0.0556857639,0.0000000000
557723.7400230130,0.0288391113,9.8005676273,-0.0090026855,-0.0005750868,0.0560112847,0.0000000000
557723.7500230130,0.0296020508,9.7955322269,-0.0311279297,0.0002712674,0.0567925347,-0.0000217014
557723.7600230130,0.0280761719,9.7984313968,-0.0163269043,0.0007378472,0.0580620660,-0.0000325521
557723.7700230130,0.0282287598,9.7991943363,-0.0155639648,-0.0007812500,0.0586697049,-0.0000325521
557723.7800230130,0.0289916992,9.7958374027,-0.0311279297,0.0010416667,0.0595486111,-0.0000108507
557723.7900230130,0.0297546387,9.7998046878,-0.0103759766,-0.0001302083,0.0604166667,-0.0000217014
557723.8000230130,0.0297546387,9.7959899906,-0.0256347656,-0.0001410590,0.0609483507,-0.0000108507
557723.8100230130,0.0285339355,9.7972106937,-0.0204467773,0.0010308160,0.0624457465,-0.0000108507
557723.8200230130,0.0277709961,9.8001098636,-0.0131225586,-0.0007378472,0.0629665799,-0.0000108507
557723.8300230131,0.0303649902,9.7950744632,-0.0321960449,0.0007378472,0.0638020833,-0.0000325521
557723.8400230129,0.0296020508,9.7999572757,-0.0103759766,0.0002929687,0.0649414062,-0.0000325521
557723.8500230130,0.0285339355,9.7979736331,-0.0210571289,-0.0005099826,0.0653862847,-0.0000217014
557723.8600230130,0.0280761719,9.7959899906,-0.0274658203,0.0012261285,0.0664171007,0.0000000000
557723.8700230130,0.0294494629,9.8004150394,-0.0102233887,-0.0004665799,0.0676323785,-0.0000108507
557723.8800230130,0.0294494629,9.7955322269,-0.0305175781,0.0002821181,0.0681206597,-0.0000434028
557723.8900230130,0.0289916992,9.7979736331,-0.0167846680,0.0008246528,0.0691406250,-0.0000108507
557723.9000230130,0.0276184082,9.7993469241,-0.0157165527,-0.0007486979,0.0700303819,-0.0000325521
557723.9100230130,0.0297546387,9.7950744632,-0.0317382813,0.0010742187,0.0706705729,-0.0000217014
557723.9200230130,0.0306701660,9.7998046878,-0.0079345703,-0.0000542535,0.0720594618,-0.0000434028
557723.9300230130,0.0285339355,9.7970581058,-0.0273132324,-0.0001736111,0.0724175347,-0.0000217014
557723.9400230130,0.0286865234,9.7967529300,-0.0231933594,0.0012369792,0.0733289931,0.0000000000
557723.9500230131,0.0289916992,9.8002624515,-0.0112915039,-0.0007269965,0.0746093750,-0.0000108507
557723.9600230129,0.0299072266,9.7952270511,-0.0325012207,0.0007595486,0.0749674479,-0.0000325521
557723.9700230130,0.0294494629,9.7998046878,-0.0109863281,0.0004557292,0.0759657118,-0.0000325521
557723.9800230130,0.0279235840,9.7982788089,-0.0215148926,-0.0006076389,0.0771158854,-0.0000325521
557723.9900230130,0.0285339355,9.7962951663,-0.0294494629,0.0013020833,0.0776041667,0.0000000000
557724.0000230130,0.0296020508,9.8010253909,-0.0071716309,-0.0003580729,0.0790256076,-0.0000325521
557724.0100230130,0.0285339355,9.7958374027,-0.0302124023,0.0002170139,0.0798828125,-0.0000217014
557724.0200230130,0.0274658203,9.7978210452,-0.0193786621,0.0010308160,0.0798719618,-0.0000108507
557724.0300230130,0.0294494629,9.7999572757,-0.0115966797,-0.0007921007,0.0812934028,-0.0000434028
557724.0400230130,0.0294494629,9.7944641116,-0.0338745117,0.0010633681,0.0821072049,-0.0000325521
557724.0500230130,0.0289916992,9.7999572757,-0.0100708008,0.0002278646,0.0828667535,-0.0000325521
557724.0600230130,0.0292968750,9.7972106937,-0.0233459473,-0.0004014757,0.0842122396,-0.0000325521
557724.0700230130,0.0285339355,9.7967529300,-0.0268554688,0.0013563368,0.0846462674,0.0000000000
557724.0800230131,0.0299072266,9.8004150394,-0.0077819824,-0.0005099826,0.0857313368,-0.0000325521
557724.0900230129,0.0288391113,9.7956848148,-0.0315856934,0.0005099826,0.0865017361,-0.0000217014
557724.1000230130,0.0277709961,9.7993469241,-0.0169372559,0.0007703993,0.0871744792,-0.0000325521
557724.1100230130,0.0296020508,9.7988891605,-0.0160217285,-0.0006618924,0.0884331597,-0.0000542535
557724.1200230130,0.0288391113,9.7952270511,-0.0305175781,0.0012152778,0.0893663194,-0.0000217014
557724.1300230130,0.0296020508,9.8002624515,-0.0096130371,0.0000000000,0.0898763021,-0.0000325521
557724.1400230130,0.0294494629,9.7959899906,-0.0265502930,-0.0000542535,0.0912760417,-0.0000217014
557724.1500230130,0.0276184082,9.7967529300,-0.0238037109,0.0013129340,0.0915039062,-0.0000217014
557724.1600230130,0.0294494629,9.8004150394,-0.0097656250,-0.0006510417,0.0923936632,-0.0000217014
557724.1700230130,0.0308227539,9.7950744632,-0.0320434570,0.0007378472,0.0938259549,-0.0000325521
557724.1800230130,0.0286865234,9.7998046878,-0.0134277344,0.0006835937,0.0942925347,-0.0000651042
557724.1900230130,0.0292968750,9.7984313968,-0.0184631348,-0.0006401910,0.0950846354,-0.0000217014
557724.2000230131,0.0296020508,9.7956848148,-0.0305175781,0.0013671875,0.0963867187,-0.0000217014
557724.2100230129,0.0289916992,9.8007202152,-0.0079345703,-0.0000868056,0.0968967014,-0.0000108507
557724.2200230130,0.0292968750,9.7959899906,-0.0273132324,-0.0000217014,0.0977756076,-0.0000217014
557724.2300230130,0.0286865234,9.7970581058,-0.0225830078,0.0013346354,0.0989040799,-0.0000217014
557724.2400230130,0.0292968750,9.8002624515,-0.0112915039,-0.0006727431,0.0994357639,-0.0000542535
557724.2500230130,0.0302124023,9.7949218753,-0.0331115723,0.0008680556,0.1005208333,-0.0000325521
557724.2600230130,0.0276184082,9.7993469241,-0.0131225586,0.0006184896,0.1014105903,-0.0000325521
557724.2700230130,0.0292968750,9.7978210452,-0.0202941895,-0.0004882812,0.1017252604,-0.0000217014
557724.2800230130,0.0300598145,9.7961425784,-0.0270080566,0.0013671875,0.1032660590,-0.0000217014
557724.2900230130,0.0285339355,9.8013305667,-0.0094604492,-0.0002495660,0.1041015625,-0.0000217014
557724.3000230130,0.0296020508,9.7952270511,-0.0296020508,0.0003472222,0.1047743056,-0.0000325521
557724.3100230130,0.0283813477,9.7982788089,-0.0190734863,0.0010850694,0.1059678819,-0.0000325521
557724.3200230130,0.0303649902,9.7996520999,-0.0148010254,-0.0006618924,0.1065755208,-0.0000434028
557724.3300230131,0.0297546387,9.7953796390,-0.0308227539,0.0012152778,0.1072808160,-0.0000217014
557724.3400230129,0.0276184082,9.8004150394,-0.0096130371,0.0002387153,0.1085503472,-0.0000542535
557724.3500230130,0.0297546387,9.7973632816,-0.0244140625,-0.0001302083,0.1090711806,-0.0000217014
557724.3600230130,0.0297546387,9.7969055179,-0.0254821777,0.0013346354,0.1097656250,-0.0000325521
557724.3700230130,0.0296020508,9.8002624515,-0.0096130371,-0.0004991319,0.1109917535,-0.0000651042
557724.3800230130,0.0296020508,9.7950744632,-0.0320434570,0.0007921007,0.1113715278,-0.0000542535
557724.3900230130,0.0291442871,9.7993469241,-0.0122070313,0.0007921007,0.1131076389,-0.0000108507
557724.4000230130,0.0288391113,9.7985839847,-0.0207519531,-0.0004774306,0.1135959201,-0.0000325521
557724.4100230130,0.0306701660,9.7958374027,-0.0292968750,0.0013997396,0.1141493056,-0.0000325521
557724.4200230130,0.0296020508,9.8005676273,-0.0062561035,-0.0001410590,0.1155924479,-0.0000434028
557724.4300230130,0.0273132324,9.7955322269,-0.0300598145,0.0003146701,0.1159939236,-0.0000542535
557724.4400230130,0.0309753418,9.7985839847,-0.0202941895,0.0011610243,0.1170138889,-0.0000434028
557724.4500230131,0.0306701660,9.7991943363,-0.0134277344,-0.0005750868,0.1181098090,-0.0000542535
557724.4600230129,0.0289916992,9.7949218753,-0.0318908691,0.0012044271,0.1185655382,-0.0000325521
557724.4700230130,0.0289916992,9.8002624515,-0.0094604492,0.0004014757,0.1198025174,-0.0000434028
557724.4800230130,0.0296020508,9.7973632816,-0.0257873535,-0.0002495660,0.1208658854,-0.0000325521
557724.4900230130,0.0300598145,9.7964477542,-0.0279235840,0.0014539931,0.1211154514,-0.0000434028
557724.5000230130,0.0297546387,9.8005676273,-0.0071716309,-0.0003363715,0.1225043403,-0.0000759549
557724.5100230130,0.0291442871,9.7955322269,-0.0312805176,0.0005859375,0.1232530382,-0.0000434028
557724.5200230130,0.0285339355,9.7984313968,-0.0173950195,0.0010742187,0.1237521701,-0.0000434028
557724.5300230130,0.0300598145,9.7990417484,-0.0166320801,-0.0005099826,0.1250976562,-0.0000434028
557724.5400230130,0.0302124023,9.7958374027,-0.0302124023,0.0012912326,0.1256727431,-0.0000434028
557724.5500230130,0.0299072266,9.8001098636,-0.0079345703,0.0002604167,0.1265299479,-0.0000542535
557724.5600230140,0.0283813477,9.7969055179,-0.0263977051,0.0000000000,0.1278971354,-0.0000325521
557724.5700230140,0.0296020508,9.7970581058,-0.0247192383,0.0014322917,0.1280815972,-0.0000325521
557724.5800230140,0.0306701660,9.7993469241,-0.0097656250,-0.0004340278,0.1287543403,-0.0000651042
557724.5900230140,0.0296020508,9.7955322269,-0.0323486328,0.0008897569,0.1304036458,-0.0000434028
557724.6000230140,0.0289916992,9.7990417484,-0.0132751465,0.0008680556,0.1310004340,-0.0000542535
557724.6100230140,0.0288391113,9.7982788089,-0.0202941895,-0.0003906250,0.1320638021,-0.0000217014
557724.6200230140,0.0296020508,9.7958374027,-0.0303649902,0.0014539931,0.1330078125,-0.0000325521
557724.6300230140,0.0305175781,9.8002624515,-0.0085449219,-0.0000651042,0.1330078125,-0.0000542535
557724.6400230140,0.0297546387,9.7964477542,-0.0279235840,0.0003797743,0.1347656250,-0.0000651042
557724.6500230141,0.0283813477,9.7975158695,-0.0216674805,0.0012586806,0.1353081597,-0.0000325521
557724.6600230139,0.0297546387,9.7994995120,-0.0128173828,-0.0004774306,0.1361653646,-0.0000542535
557724.6700230140,0.0308227539,9.7949218753,-0.0317382813,0.0012044271,0.1371853299,-0.0000434028
557724.6800230140,0.0286865234,9.8001098636,-0.0120544434,0.0005533854,0.1378363715,-0.0000651042
557724.6900230140,0.0296020508,9.7975158695,-0.0230407715,-0.0001736111,0.1390842014,-0.0000434028
557724.7000230140,0.0302124023,9.7961425784,-0.0260925293,0.0014865451,0.1394639757,-0.0000434028
557724.7100230140,0.0305175781,9.8004150394,-0.0096130371,-0.0002712674,0.1403971354,-0.0000759549
557724.7200230140,0.0303649902,9.7950744632,-0.0300598145,0.0007595486,0.1416124132,-0.0000542535
557724.7300230140,0.0292968750,9.7985839847,-0.0169372559,0.0010199653,0.1423502604,-0.0000434028
557724.7400230140,0.0291442871,9.7985839847,-0.0184631348,-0.0003689236,0.1432725694,-0.0000542535
557724.7500230140,0.0309753418,9.7959899906,-0.0277709961,0.0014539931,0.1443467882,-0.0000434028
557724.7600230140,0.0296020508,9.7998046878,-0.0090026855,0.0000868056,0.1449761285,-0.0000868056
557724.7700230140,0.0282287598,9.7966003421,-0.0286865234,0.0003146701,0.1457031250,-0.0000542535
557724.7800230141,0.0289916992,9.7976684574,-0.0221252441,0.0013563368,0.1468424479,-0.0000434028
557724.7900230139,0.0302124023,9.7998046878,-0.0134277344,-0.0004340278,0.1475368924,-0.0000542535
557724.8000230140,0.0314331055,9.7952270511,-0.0306701660,0.0012695312,0.1482747396,-0.0000542535
557724.8100230140,0.0297546387,9.7993469241,-0.0109863281,0.0006618924,0.1495225694,-0.0000542535
557724.8200230140,0.0285339355,9.7981262210,-0.0238037109,-0.0001953125,0.1502604167,-0.0000542535
557724.8300230140,0.0297546387,9.7956848148,-0.0273132324,0.0016384549,0.1511067708,-0.0000542535
557724.8400230140,0.0302124023,9.8004150394,-0.0091552734,-0.0002604167,0.1521375868,-0.0000868056
557724.8500230140,0.0315856934,9.7956848148,-0.0329589844,0.0007921007,0.1527777778,-0.0000759549
557724.8600230140,0.0286865234,9.7984313968,-0.0167846680,0.0011501736,0.1536349826,-0.0000325521
557724.8700230140,0.0286865234,9.7993469241,-0.0172424316,-0.0004231771,0.1547092014,-0.0000542535
557724.8800230140,0.0309753418,9.7953796390,-0.0318908691,0.0015516493,0.1547743055,-0.0000325521
557724.8900230140,0.0321960449,9.8005676273,-0.0064086914,0.0001844618,0.1565212674,-0.0000759549
557724.9000230141,0.0292968750,9.7962951663,-0.0274658203,0.0002712674,0.1571289062,-0.0000759549
557724.9100230139,0.0288391113,9.7967529300,-0.0234985352,0.0014865451,0.1579210069,-0.0000651042
557724.9200230140,0.0300598145,9.8001098636,-0.0112915039,-0.0003797743,0.1593750000,-0.0000651042
557724.9300230140,0.0302124023,9.7953796390,-0.0331115723,0.0012044271,0.1595703125,-0.0000542535
557724.9400230140,0.0300598145,9.7988891605,-0.0106811523,0.0007921007,0.1604383680,-0.0000651042
557724.9500230140,0.0302124023,9.7976684574,-0.0212097168,-0.0001519097,0.1619357639,-0.0000651042
557724.9600230140,0.0296020508,9.7964477542,-0.0296020508,0.0016493056,0.1621093750,-0.0000651042
557724.9700230140,0.0302124023,9.7996520999,-0.0085449219,-0.0000542535,0.1632921007,-0.0000759549
557724.9800230140,0.0312805176,9.7959899906,-0.0311279297,0.0005859375,0.1644531250,-0.0000651042
557724.9900230140,0.0308227539,9.7982788089,-0.0193786621,0.0014214410,0.1646918403,-0.0000434028
557725.0000230140,0.0294494629,9.7993469241,-0.0129699707,-0.0003689236,0.1661349826,-0.0000759549
557725.0100230140,0.0283813477,9.7958374027,-0.0334167480,0.0013780382,0.1671115451,-0.0000651042
557725.0200230140,0.0312805176,9.7998046878,-0.0090026855,0.0006293403,0.1673502604,-0.0000542535
557725.0300230141,0.0309753418,9.7975158695,-0.0239562988,-0.0000325521,0.1687174479,-0.0000868056
557725.0400230139,0.0303649902,9.7961425784,-0.0279235840,0.0016710069,0.1693142361,-0.0000651042
557725.0500230140,0.0296020508,9.8010253909,-0.0077819824,-0.0001736111,0.1701714410,-0.0000542535
557725.0600230140,0.0289916992,9.7953796390,-0.0326538086,0.0008463542,0.1712131076,-0.0000651042
557725.0700230140,0.0306701660,9.7984313968,-0.0163269043,0.0012478299,0.1717990451,-0.0000542535
557725.0800230140,0.0306701660,9.7991943363,-0.0163269043,-0.0003146701,0.1729383680,-0.0000651042
557725.0900230140,0.0305175781,9.7956848148,-0.0314331055,0.0015190972,0.1740234375,-0.0000759549
557725.1000230140,0.0288391113,9.8001098636,-0.0094604492,0.0004231771,0.1743164062,-0.0000651042
557725.1100230140,0.0300598145,9.7966003421,-0.0270080566,0.0001953125,0.1755967882,-0.0000759549
557725.1200230140,0.0302124023,9.7975158695,-0.0247192383,0.0016384549,0.1757486979,-0.0000542535
557725.1300230140,0.0292968750,9.7993469241,-0.0115966797,-0.0002170139,0.1751410590,-0.0000651042
557725.1400230140,0.0282287598,9.7958374027,-0.0331115723,0.0010633681,0.1745876736,-0.0000759549
557725.1500230141,0.0289916992,9.7987365726,-0.0152587891,0.0010091146,0.1742947049,-0.0000651042
557725.1600230139,0.0302124023,9.7984313968,-0.0212097168,-0.0001953125,0.1741427951,-0.0000868056
557725.1700230140,0.0297546387,9.7961425784,-0.0305175781,0.0016384549,0.1741861979,-0.0000651042
557725.1800230140,0.0294494629,9.8005676273,-0.0097656250,0.0001085069,0.1742730035,-0.0000759549
557725.1900230140,0.0294494629,9.7964477542,-0.0300598145,0.0005642361,0.1742730035,-0.0000542535
557725.2000230140,0.0302124023,9.7979736331,-0.0199890137,0.0014865451,0.1742838542,-0.0000434028
557725.2100230140,0.0303649902,9.7996520999,-0.0155639648,-0.0003146701,0.1743055555,-0.0000759549
557725.2200230140,0.0294494629,9.7953796390,-0.0347900391,0.0013780382,0.1742404514,-0.0000868056
557725.2300230140,0.0299072266,9.7996520999,-0.0114440918,0.0006618924,0.1743164062,-0.0000651042
557725.2400230140,0.0291442871,9.7972106937,-0.0247192383,0.0000000000,0.1744032118,-0.0000868056
557725.2500230140,0.0299072266,9.7962951663,-0.0277709961,0.0016710069,0.1743164062,-0.0000542535
557725.2600230140,0.0300598145,9.8005676273,-0.0105285645,-0.0001085069,0.1743923611,-0.0000651042
557725.2700230140,0.0294494629,9.7956848148,-0.0312805176,0.0009114583,0.1744140625,-0.0000868056
557725.2800230141,0.0288391113,9.7988891605,-0.0172424316,0.0012261285,0.1742838542,-0.0000759549
557725.2900230139,0.0294494629,9.7990417484,-0.0178527832,-0.0003146701,0.1743164062,-0.0000651042
557725.3000230140,0.0299072266,9.7955322269,-0.0321960449,0.0015516493,0.1743272569,-0.0000868056
557725.3100230140,0.0294494629,9.8007202152,-0.0096130371,0.0003255208,0.1743598090,-0.0000868056
557725.3200230140,0.0297546387,9.7962951663,-0.0282287598,0.0003363715,0.1743381076,-0.0000759549
557725.3300230140,0.0300598145,9.7970581058,-0.0234985352,0.0015842014,0.1743489583,-0.0000542535
557725.3400230140,0.0292968750,9.7994995120,-0.0134277344,-0.0003038194,0.1743923611,-0.0000759549
557725.3500230140,0.0292968750,9.7956848148,-0.0335693359,0.0012586806,0.1742947049,-0.0000759549
557725.3600230140,0.0302124023,9.7999572757,-0.0126647949,0.0008355035,0.1743598090,-0.0000868056
557725.3700230140,0.0303649902,9.7979736331,-0.0219726563,-0.0000976562,0.1744683160,-0.0000759549
557725.3800230140,0.0297546387,9.7959899906,-0.0297546387,0.0016601562,0.1743923611,-0.0000651042
557725.3900230140,0.0299072266,9.7999572757,-0.0096130371,0.0000108507,0.1744791667,-0.0000651042
557725.4000230141,0.0296020508,9.7953796390,-0.0315856934,0.0006944444,0.1744900174,-0.0000325521
557725.4100230139,0.0300598145,9.7982788089,-0.0193786621,0.0013563368,0.1744574653,-0.0000434028
557725.4200230140,0.0300598145,9.7993469241,-0.0158691406,-0.0003038194,0.1744791667,-0.0000759549
557725.4300230140,0.0294494629,9.7956848148,-0.0338745117,0.0014648437,0.1744574653,-0.0000542535
557725.4400230140,0.0300598145,9.7999572757,-0.0102233887,0.0004665799,0.1744249132,-0.0000759549
557725.4500230140,0.0303649902,9.7973632816,-0.0265502930,0.0001193576,0.1745334201,-0.0000759549
557725.4600230140,0.0305175781,9.7970581058,-0.0265502930,0.0016601562,0.1744032118,-0.0000542535
557725.4700230140,0.0294494629,9.7998046878,-0.0105285645,-0.0001627604,0.1745008680,-0.0000651042
557725.4800230140,0.0289916992,9.7953796390,-0.0338745117,0.0010199653,0.1744683160,-0.0000651042
557725.4900230140,0.0297546387,9.7988891605,-0.0154113770,0.0010959201,0.1744140625,-0.0000868056
557725.5000230140,0.0300598145,9.7981262210,-0.0183105469,-0.0002712674,0.1745117187,-0.0000868056
557725.5100230140,0.0296020508,9.7956848148,-0.0314331055,0.0016384549,0.1744140625,-0.0000651042
557725.5200230140,0.0297546387,9.8005676273,-0.0094604492,0.0002495660,0.1745008680,-0.0000759549
557725.5300230141,0.0297546387,9.7964477542,-0.0300598145,0.0004123264,0.1745876736,-0.0000759549
557725.5400230139,0.0294494629,9.7972106937,-0.0228881836,0.0015190972,0.1744900174,-0.0000759549
557725.5500230140,0.0297546387,9.7996520999,-0.0129699707,-0.0002712674,0.1744683160,-0.0000868056
557725.5600230140,0.0300598145,9.7956848148,-0.0334167480,0.0012912326,0.1744574653,-0.0000868056
557725.5700230140,0.0297546387,9.7998046878,-0.0126647949,0.0007595486,0.1744683160,-0.0000868056
557725.5800230140,0.0297546387,9.7976684574,-0.0241088867,-0.0000217014,0.1745117187,-0.0000759549
557725.5900230140,0.0299072266,9.7966003421,-0.0289916992,0.0016384549,0.1744683160,-0.0000651042
557725.6000230140,0.0305175781,9.8002624515,-0.0103759766,-0.0000651042,0.1744683160,-0.0000759549
557725.6100230140,0.0292968750,9.7962951663,-0.0312805176,0.0008897569,0.1744791667,-0.0000759549
557725.6200230140,0.0297546387,9.7985839847,-0.0166320801,0.0011935764,0.1744791667,-0.0000542535
557725.6300230140,0.0300598145,9.7990417484,-0.0196838379,-0.0003038194,0.1744900174,-0.0000868056
557725.6400230150,0.0299072266,9.7952270511,-0.0320434570,0.0015625000,0.1744574653,-0.0000651042
557725.6500230150,0.0302124023,9.8004150394,-0.0090026855,0.0002712674,0.1745659722,-0.0000651042
557725.6600230150,0.0283813477,9.7966003421,-0.0296020508,0.0004231771,0.1745876736,-0.0000651042
557725.6700230150,0.0294494629,9.7979736331,-0.0233459473,0.0014756944,0.1745442708,-0.0000868056
557725.6800230150,0.0302124023,9.7994995120,-0.0149536133,-0.0002604167,0.1745442708,-0.0000759549
557725.6900230150,0.0303649902,9.7952270511,-0.0323486328,0.0013020833,0.1744900174,-0.0000868056
557725.7000230150,0.0297546387,9.7998046878,-0.0119018555,0.0006727431,0.1745008680,-0.0000868056
557725.7100230150,0.0289916992,9.7976684574,-0.0259399414,0.0000325521,0.1745117187,-0.0000759549
557725.7200230150,0.0296020508,9.7969055179,-0.0265502930,0.0016276042,0.1745008680,-0.0000651042
557725.7300230151,0.0308227539,9.7999572757,-0.0108337402,-0.0000976562,0.1744574653,-0.0000759549
557725.7400230150,0.0302124023,9.7956848148,-0.0320434570,0.0009657118,0.1743923611,-0.0000976562
557725.7500230150,0.0297546387,9.7988891605,-0.0167846680,0.0011393229,0.1744683160,-0.0000759549
557725.7600230150,0.0297546387,9.7985839847,-0.0202941895,-0.0003038194,0.1745117187,-0.0000759549
557725.7700230150,0.0299072266,9.7953796390,-0.0312805176,0.0016059028,0.1745442708,-0.0000651042
557725.7800230150,0.0306701660,9.8004150394,-0.0093078613,0.0002604167,0.1745768229,-0.0000759549
557725.7900230150,0.0286865234,9.7959899906,-0.0294494629,0.0003797743,0.1745334201,-0.0000651042
557725.8000230150,0.0297546387,9.7975158695,-0.0234985352,0.0015733507,0.1745551215,-0.0000868056
557725.8100230150,0.0302124023,9.7996520999,-0.0131225586,-0.0003038194,0.1745551215,-0.0000651042
557725.8200230150,0.0299072266,9.7950744632,-0.0343322754,0.0012152778,0.1744900174,-0.0000759549
557725.8300230150,0.0294494629,9.8002624515,-0.0131225586,0.0008680556,0.1745225694,-0.0000976562
557725.8400230150,0.0288391113,9.7981262210,-0.0221252441,-0.0001627604,0.1744791667,-0.0000759549
557725.8500230151,0.0311279297,9.7962951663,-0.0296020508,0.0016927083,0.1745659722,-0.0000651042
557725.8600230149,0.0294494629,9.7998046878,-0.0094604492,0.0000759549,0.1744791667,-0.0000759549
557725.8700230150,0.0291442871,9.7964477542,-0.0314331055,0.0005967882,0.1744249132,-0.0000651042
557725.8800230150,0.0308227539,9.7978210452,-0.0198364258,0.0014431424,0.1745117187,-0.0000868056
557725.8900230150,0.0303649902,9.7998046878,-0.0144958496,-0.0003580729,0.1745659722,-0.0001085069
557725.9000230150,0.0289916992,9.7953796390,-0.0343322754,0.0014431424,0.1744683160,-0.0000542535
557725.9100230150,0.0300598145,9.8004150394,-0.0122070313,0.0005750868,0.1745551215,-0.0000759549
557725.9200230150,0.0296020508,9.7972106937,-0.0250244141,0.0000542535,0.1744466146,-0.0000759549
557725.9300230150,0.0300598145,9.7966003421,-0.0260925293,0.0017361111,0.1744791667,-0.0000651042
557725.9400230150,0.0297546387,9.8002624515,-0.0108337402,-0.0001736111,0.1745659722,-0.0000759549
557725.9500230150,0.0288391113,9.7958374027,-0.0354003906,0.0009765625,0.1744574653,-0.0000868056
557725.9600230150,0.0308227539,9.7985839847,-0.0167846680,0.0011284722,0.1745659722,-0.0000759549
557725.9700230150,0.0315856934,9.7985839847,-0.0175476074,-0.0003255208,0.1746202257,-0.0000759549
557725.9800230151,0.0292968750,9.7962951663,-0.0320434570,0.0016384549,0.1744683160,-0.0000868056
557725.9900230150,0.0280761719,9.7998046878,-0.0105285645,0.0002929687,0.1745659722,-0.0000542535
557726.0000230150,0.0302124023,9.7966003421,-0.0286865234,0.0003255208,0.1745551215,-0.0000651042
557726.0100230150,0.0315856934,9.7975158695,-0.0239562988,0.0016167535,0.1747504340,-0.0000868056
557726.0200230150,0.0296020508,9.7998046878,-0.0126647949,-0.0003038194,0.1745117187,-0.0000976562
557726.0300230150,0.0273132324,9.7958374027,-0.0334167480,0.0011935764,0.1745225694,-0.0000868056
557726.0400230150,0.0297546387,9.7998046878,-0.0140380859,0.0008789062,0.1744466146,-0.0000651042
557726.0500230150,0.0320434570,9.7984313968,-0.0216674805,-0.0001519097,0.1745985243,-0.0000976562
557726.0600230150,0.0312805176,9.7962951663,-0.0300598145,0.0016927083,0.1745334201,-0.0000651042
557726.0700230150,0.0277709961,9.8002624515,-0.0096130371,0.0000217014,0.1744249132,-0.0000868056
557726.0800230150,0.0291442871,9.7962951663,-0.0318908691,0.0006618924,0.1746093750,-0.0000651042
557726.0900230150,0.0314331055,9.7981262210,-0.0190734863,0.0013563368,0.1745442708,-0.0000759549
557726.1000230151,0.0305175781,9.7996520999,-0.0161743164,-0.0003255208,0.1745876736,-0.0000976562
557726.1100230149,0.0285339355,9.7950744632,-0.0332641602,0.0014539931,0.1745876736,-0.0000759549
557726.1200230150,0.0285339355,9.7998046878,-0.0111389160,0.0005208333,0.1745334201,-0.0000759549
557726.1300230150,0.0312805176,9.7972106937,-0.0265502930,0.0001193576,0.1745442708,-0.0000651042
557726.1400230150,0.0311279297,9.7972106937,-0.0250244141,0.0016710069,0.1744791667,-0.0000868056
557726.1500230150,0.0300598145,9.7999572757,-0.0122070313,-0.0001736111,0.1745551215,-0.0000976562
557726.1600230150,0.0292968750,9.7949218753,-0.0335693359,0.0010199653,0.1745008680,-0.0000976562
557726.1700230150,0.0303649902,9.7991943363,-0.0151062012,0.0010091146,0.1745551215,-0.0000759549
557726.1800230150,0.0312805176,9.7982788089,-0.0213623047,-0.0001844618,0.1745551215,-0.0000759549
557726.1900230150,0.0297546387,9.7961425784,-0.0314331055,0.0016927083,0.1744574653,-0.0000651042
557726.2000230150,0.0292968750,9.8004150394,-0.0099182129,0.0000976562,0.1745659722,-0.0000759549
557726.2100230150,0.0299072266,9.7959899906,-0.0305175781,0.0006076389,0.1744791667,-0.0000651042
557726.2200230150,0.0305175781,9.7981262210,-0.0196838379,0.0014322917,0.1745008680,-0.0000868056
557726.2300230151,0.0302124023,9.7996520999,-0.0154113770,-0.0003255208,0.1746744792,-0.0001193576
557726.2400230150,0.0291442871,9.7949218753,-0.0340270996,0.0014105903,0.1744900174,-0.0000542535
557726.2500230150,0.0308227539,9.7998046878,-0.0109863281,0.0005533854,0.1745225694,-0.0000651042
557726.2600230150,0.0302124023,9.7970581058,-0.0268554688,0.0001193576,0.1745659722,-0.0000651042
557726.2700230150,0.0306701660,9.7966003421,-0.0259399414,0.0016927083,0.1744683160,-0.0000651042
557726.2800230150,0.0289916992,9.8004150394,-0.0106811523,-0.0001736111,0.1745659722,-0.0000976562
557726.2900230150,0.0302124023,9.7950744632,-0.0337219238,0.0009765625,0.1745551215,-0.0000759549
557726.3000230150,0.0311279297,9.7987365726,-0.0158691406,0.0010959201,0.1745768229,-0.0000976562
557726.3100230150,0.0299072266,9.7988891605,-0.0193786621,-0.0002821181,0.1745334201,-0.0000868056
557726.3200230150,0.0294494629,9.7952270511,-0.0323486328,0.0016601562,0.1745768229,-0.0000651042
557726.3300230150,0.0294494629,9.7998046878,-0.0109863281,0.0002712674,0.1745008680,-0.0000868056
557726.3400230150,0.0305175781,9.7967529300,-0.0299072266,0.0004014757,0.1745008680,-0.0000759549
557726.3500230151,0.0317382813,9.7972106937,-0.0212097168,0.0015407986,0.1745551215,-0.0000976562
557726.3600230149,0.0297546387,9.7999572757,-0.0137329102,-0.0003038194,0.1745876736,-0.0001193576
557726.3700230150,0.0279235840,9.7956848148,-0.0355529785,0.0012695312,0.1745551215,-0.0000759549
557726.3800230150,0.0320434570,9.7996520999,-0.0125122070,0.0007595486,0.1746744792,-0.0000651042
557726.3900230150,0.0318908691,9.7982788089,-0.0230407715,-0.0000976562,0.1745442708,-0.0000868056
557726.4000230150,0.0292968750,9.7966003421,-0.0285339355,0.0017252604,0.1745225694,-0.0000868056
557726.4100230150,0.0288391113,9.8002624515,-0.0105285645,-0.0000108507,0.1746310764,-0.0000976562
557726.4200230150,0.0291442871,9.7958374027,-0.0326538086,0.0007703993,0.1745551215,-0.0000759549
557726.4300230150,0.0320434570,9.7988891605,-0.0190734863,0.0012261285,0.1745117187,-0.0000976562
557726.4400230150,0.0309753418,9.7998046878,-0.0166320801,-0.0003038194,0.1745985243,-0.0000868056
557726.4500230150,0.0282287598,9.7961425784,-0.0320434570,0.0015516493,0.1745659722,-0.0000976562
557726.4600230150,0.0285339355,9.8002624515,-0.0111389160,0.0003472222,0.1745442708,-0.0000651042
557726.4700230150,0.0314331055,9.7964477542,-0.0292968750,0.0003580729,0.1746419271,-0.0000651042
557726.4800230151,0.0315856934,9.7972106937,-0.0218200684,0.0015733507,0.1745442708,-0.0000976562
557726.4900230150,0.0297546387,9.7998046878,-0.0134277344,-0.0002821181,0.1745442708,-0.0000976562
557726.5000230150,0.0285339355,9.7953796390,-0.0358581543,0.0013020833,0.1745551215,-0.0000434028
557726.5100230150,0.0305175781,9.7996520999,-0.0134277344,0.0007595486,0.1745768229,-0.0000759549
557726.5200230150,0.0317382813,9.7978210452,-0.0216674805,-0.0001085069,0.1745442708,-0.0000868056
557726.5300230150,0.0303649902,9.7961425784,-0.0296020508,0.0017578125,0.1745334201,-0.0000868056
557726.5400230150,0.0288391113,9.7999572757,-0.0102233887,0.0000000000,0.1746310764,-0.0000976562
557726.5500230150,0.0299072266,9.7958374027,-0.0325012207,0.0005967882,0.1745876736,-0.0000759549
557726.5600230150,0.0315856934,9.7979736331,-0.0192260742,0.0014431424,0.1745768229,-0.0000976562
557726.5700230150,0.0308227539,9.7991943363,-0.0163269043,-0.0003363715,0.1745876736,-0.0000976562
557726.5800230150,0.0291442871,9.7959899906,-0.0341796875,0.0014105903,0.1745659722,-0.0000868056
557726.5900230150,0.0291442871,9.7994995120,-0.0109863281,0.0005750868,0.1744791667,-0.0000868056
557726.6000230151,0.0306701660,9.7975158695,-0.0257873535,0.0000976562,0.1745334201,-0.0000759549
557726.6100230149,0.0318908691,9.7969055179,-0.0257873535,0.0016710069,0.1745551215,-0.0001085069
557726.6200230150,0.0291442871,9.8004150394,-0.0119018555,-0.0001844618,0.1745551215,-0.0000868056
557726.6300230150,0.0286865234,9.7953796390,-0.0343322754,0.0010199653,0.1746310764,-0.0000868056
557726.6400230150,0.0305175781,9.7988891605,-0.0141906738,0.0010416667,0.1745985243,-0.0000651042
557726.6500230150,0.0317382813,9.7987365726,-0.0202941895,-0.0002278646,0.1746527778,-0.0000868056
557726.6600230150,0.0306701660,9.7956848148,-0.0317382813,0.0016927083,0.1746527778,-0.0000868056
557726.6700230150,0.0297546387,9.7998046878,-0.0105285645,0.0001410590,0.1745985243,-0.0000868056
557726.6800230150,0.0303649902,9.7964477542,-0.0294494629,0.0005533854,0.1749457465,-0.0000868056
557726.6900230150,0.0309753418,9.7976684574,-0.0210571289,0.0014105903,0.1745985243,-0.0000868056
557726.7000230150,0.0305175781,9.7990417484,-0.0152587891,-0.0003255208,0.1746310764,-0.0000759549
557726.7100230160,0.0302124023,9.7950744632,-0.0344848633,0.0014539931,0.1745008680,-0.0000976562
557726.7200230160,0.0302124023,9.8001098636,-0.0106811523,0.0005316840,0.1744574653,-0.0000868056
557726.7300230160,0.0299072266,9.7972106937,-0.0260925293,0.0001085069,0.1745551215,-0.0000868056
557726.7400230160,0.0306701660,9.7969055179,-0.0276184082,0.0017469618,0.1745334201,-0.0000976562
557726.7500230160,0.0297546387,9.8002624515,-0.0119018555,-0.0001844618,0.1744900174,-0.0000868056
557726.7600230160,0.0302124023,9.7956848148,-0.0335693359,0.0008789062,0.1745768229,-0.0000976562
557726.7700230160,0.0305175781,9.7985839847,-0.0149536133,0.0012369792,0.1745876736,-0.0000868056
557726.7800230160,0.0297546387,9.7984313968,-0.0178527832,-0.0003255208,0.1745334201,-0.0000759549
557726.7900230160,0.0299072266,9.7952270511,-0.0343322754,0.0015842014,0.1746202257,-0.0000542535
557726.8000230161,0.0314331055,9.7999572757,-0.0096130371,0.0004014757,0.1746419271,-0.0001085069
557726.8100230159,0.0300598145,9.7970581058,-0.0274658203,0.0002495660,0.1745768229,-0.0000868056
557726.8200230160,0.0302124023,9.7969055179,-0.0244140625,0.0016601562,0.1745876736,-0.0000868056
557726.8300230160,0.0302124023,9.7998046878,-0.0123596191,-0.0002495660,0.1746527778,-0.0000976562
557726.8400230160,0.0299072266,9.7952270511,-0.0347900391,0.0010633681,0.1745876736,-0.0000759549
557726.8500230160,0.0311279297,9.7985839847,-0.0144958496,0.0010416667,0.1744249132,-0.0000868056
557726.8600230160,0.0300598145,9.7990417484,-0.0204467773,-0.0002170139,0.1745876736,-0.0000976562
557726.8700230160,0.0300598145,9.7956848148,-0.0325012207,0.0016601562,0.1744791667,-0.0000868056
557726.8800230160,0.0303649902,9.8002624515,-0.0108337402,0.0001953125,0.1745008680,-0.0000868056
557726.8900230160,0.0305175781,9.7966003421,-0.0296020508,0.0004014757,0.1745442708,-0.0000759549
557726.9000230160,0.0305175781,9.7976684574,-0.0219726563,0.0015407986,0.1745117187,-0.0000976562
557726.9100230160,0.0303649902,9.7990417484,-0.0143432617,-0.0003038194,0.1745334201,-0.0000868056
557726.9200230160,0.0297546387,9.7952270511,-0.0349426270,0.0012912326,0.1745442708,-0.0000868056
557726.9300230159,0.0308227539,9.8001098636,-0.0131225586,0.0007595486,0.1745551215,-0.0000651042
557726.9400230160,0.0309753418,9.7973632816,-0.0239562988,0.0000000000,0.1746202257,-0.0000868056
557726.9500230160,0.0297546387,9.7964477542,-0.0283813477,0.0016601562,0.1745768229,-0.0000868056
557726.9600230160,0.0294494629,9.7999572757,-0.0123596191,-0.0000651042,0.1745876736,-0.0000868056
557726.9700230160,0.0308227539,9.7956848148,-0.0314331055,0.0008789062,0.1745225694,-0.0000759549
557726.9800230160,0.0315856934,9.7985839847,-0.0167846680,0.0011501736,0.1746093750,-0.0000868056
557726.9900230160,0.0306701660,9.7982788089,-0.0201416016,-0.0001953125,0.1745659722,-0.0000868056
557727.0000230160,0.0285339355,9.7956848148,-0.0320434570,0.0015842014,0.1745008680,-0.0000976562
557727.0100230160,0.0309753418,9.7994995120,-0.0088500977,0.0003255208,0.1748697917,-0.0000868056
557727.0200230160,0.0325012207,9.7967529300,-0.0288391113,0.0003472222,0.1745117187,-0.0000868056
557727.0300230160,0.0303649902,9.7969055179,-0.0247192383,0.0016276042,0.1745768229,-0.0001085069
557727.0400230160,0.0289916992,9.7999572757,-0.0131225586,-0.0003363715,0.1745551215,-0.0000868056
557727.0500230161,0.0300598145,9.7952270511,-0.0346374512,0.0012261285,0.1745551215,-0.0000759549
557727.0600230159,0.0312805176,9.7996520999,-0.0138854980,0.0009331597,0.1745117187,-0.0000868056
557727.0700230160,0.0312805176,9.7985839847,-0.0228881836,-0.0001736111,0.1745876736,-0.0000976562
557727.0800230160,0.0297546387,9.7958374027,-0.0308227539,0.0017144097,0.1745225694,-0.0000976562
557727.0900230160,0.0292968750,9.8002624515,-0.0096130371,0.0000217014,0.1745008680,-0.0000976562
557727.1000230160,0.0306701660,9.7969055179,-0.0317382813,0.0006510417,0.1745659722,-0.0000868056
557727.1100230160,0.0321960449,9.7987365726,-0.0199890137,0.0013563368,0.1745225694,-0.0000868056
557727.1200230160,0.0305175781,9.7994995120,-0.0170898438,-0.0003038194,0.1745117187,-0.0000868056
557727.1300230160,0.0297546387,9.7956848148,-0.0341796875,0.0014756944,0.1745876736,-0.0000868056
557727.1400230160,0.0297546387,9.7999572757,-0.0097656250,0.0005533854,0.1745876736,-0.0000759549
557727.1500230160,0.0309753418,9.7967529300,-0.0265502930,0.0001085069,0.1745442708,-0.0000976562
557727.1600230160,0.0308227539,9.7976684574,-0.0279235840,0.0016276042,0.1745225694,-0.0000976562
557727.1700230160,0.0300598145,9.7998046878,-0.0111389160,-0.0001627604,0.1745876736,-0.0000976562
557727.1800230159,0.0294494629,9.7953796390,-0.0332641602,0.0009657118,0.1744574653,-0.0000868056
557727.1900230160,0.0318908691,9.7985839847,-0.0157165527,0.0011284722,0.1745768229,-0.0000976562
557727.2000230160,0.0311279297,9.7988891605,-0.0198364258,-0.0002170139,0.1746202257,-0.0000976562
557727.2100230160,0.0296020508,9.7961425784,-0.0332641602,0.0016384549,0.1745659722,-0.0001085069
557727.2200230160,0.0297546387,9.7998046878,-0.0102233887,0.0002061632,0.1745876736,-0.0000976562
557727.2300230160,0.0318908691,9.7961425784,-0.0296020508,0.0004231771,0.1746744792,-0.0000868056
557727.2400230160,0.0314331055,9.7973632816,-0.0218200684,0.0014756944,0.1745008680,-0.0000976562
557727.2500230160,0.0297546387,9.7996520999,-0.0152587891,-0.0002495660,0.1745008680,-0.0000868056
557727.2600230160,0.0291442871,9.7952270511,-0.0337219238,0.0013129340,0.1745985243,-0.0000868056
557727.2700230160,0.0312805176,9.7993469241,-0.0120544434,0.0007703993,0.1745117187,-0.0000868056
557727.2800230160,0.0317382813,9.7979736331,-0.0245666504,-0.0000542535,0.1745334201,-0.0000976562
557727.2900230160,0.0299072266,9.7961425784,-0.0294494629,0.0017469618,0.1744900174,-0.0000868056
557727.3000230161,0.0296020508,9.8010253909,-0.0106811523,-0.0000651042,0.1746636285,-0.0000868056
557727.3100230159,0.0305175781,9.7961425784,-0.0323486328,0.0007378472,0.1745442708,-0.0000868056
557727.3200230160,0.0315856934,9.7984313968,-0.0180053711,0.0013020833,0.1745008680,-0.0000868056
557727.3300230160,0.0305175781,9.7988891605,-0.0173950195,-0.0002712674,0.1745659722,-0.0001193576
557727.3400230160,0.0296020508,9.7961425784,-0.0340270996,0.0015190972,0.1745985243,-0.0000976562
557727.3500230160,0.0308227539,9.7999572757,-0.0109863281,0.0004557292,0.1745876736,-0.0000759549
557727.3600230160,0.0315856934,9.7970581058,-0.0271606445,0.0001953125,0.1745768229,-0.0000868056
557727.3700230160,0.0312805176,9.7972106937,-0.0244140625,0.0015733507,0.1745876736,-0.0000976562
557727.3800230160,0.0289916992,9.7994995120,-0.0123596191,-0.0001953125,0.1746310764,-0.0000868056
557727.3900230160,0.0294494629,9.7953796390,-0.0335693359,0.0011176215,0.1745442708,-0.0000759549
557727.4000230160,0.0321960449,9.7996520999,-0.0137329102,0.0009765625,0.1745442708,-0.0000868056
557727.4100230160,0.0312805176,9.7978210452,-0.0225830078,-0.0001085069,0.1746527778,-0.0001193576
557727.4200230160,0.0296020508,9.7955322269,-0.0309753418,0.0016601562,0.1744574653,-0.0000976562
557727.4300230159,0.0306701660,9.8005676273,-0.0105285645,0.0000542535,0.1744683160,-0.0000868056
557727.4400230160,0.0306701660,9.7959899906,-0.0306701660,0.0005859375,0.1745876736,-0.0000651042
557727.4500230160,0.0308227539,9.7981262210,-0.0209045410,0.0014648437,0.1745768229,-0.0000868056
557727.4600230160,0.0305175781,9.7994995120,-0.0166320801,-0.0003363715,0.1746527778,-0.0000868056
557727.4700230160,0.0300598145,9.7950744632,-0.0341796875,0.0013888889,0.1746093750,-0.0000868056
557727.4800230160,0.0314331055,9.7996520999,-0.0115966797,0.0006401910,0.1746636285,-0.0000868056
557727.4900230160,0.0305175781,9.7979736331,-0.0260925293,0.0000868056,0.1746419271,-0.0000976562
557727.5000230160,0.0308227539,9.7967529300,-0.0273132324,0.0016384549,0.1744683160,-0.0000976562
557727.5100230160,0.0300598145,9.7998046878,-0.0119018555,-0.0001953125,0.1745659722,-0.0000868056
557727.5200230160,0.0305175781,9.7953796390,-0.0335693359,0.0010416667,0.1745768229,-0.0000759549
557727.5300230160,0.0318908691,9.7985839847,-0.0148010254,0.0011067708,0.1745442708,-0.0000976562
557727.5400230160,0.0302124023,9.7985839847,-0.0209045410,-0.0002278646,0.1745551215,-0.0000976562
557727.5500230161,0.0302124023,9.7958374027,-0.0320434570,0.0016384549,0.1745768229,-0.0000868056
557727.5600230159,0.0303649902,9.7999572757,-0.0090026855,0.0001844618,0.1745551215,-0.0000759549
557727.5700230160,0.0311279297,9.7964477542,-0.0292968750,0.0004123264,0.1745334201,-0.0000976562
557727.5800230160,0.0314331055,9.7975158695,-0.0231933594,0.0015516493,0.1745442708,-0.0000976562
557727.5900230160,0.0305175781,9.7993469241,-0.0148010254,-0.0003038194,0.1745117187,-0.0000976562
557727.6000230160,0.0299072266,9.7953796390,-0.0334167480,0.0013454861,0.1745659722,-0.0000976562
557727.6100230160,0.0311279297,9.7994995120,-0.0123596191,0.0007161458,0.1746093750,-0.0000976562
557727.6200230160,0.0311279297,9.7973632816,-0.0248718262,0.0000000000,0.1746419271,-0.0000976562
557727.6300230160,0.0306701660,9.7966003421,-0.0279235840,0.0016927083,0.1745659722,-0.0000651042
557727.6400230160,0.0302124023,9.8007202152,-0.0102233887,-0.0001302083,0.1746419271,-0.0000868056
557727.6500230160,0.0303649902,9.7953796390,-0.0337219238,0.0008897569,0.1746744792,-0.0000976562
557727.6600230160,0.0311279297,9.7988891605,-0.0172424316,0.0012044271,0.1746636285,-0.0000868056
557727.6700230160,0.0308227539,9.7990417484,-0.0192260742,-0.0002495660,0.1745659722,-0.0000976562
557727.6800230159,0.0308227539,9.7952270511,-0.0314331055,0.0016167535,0.1744900174,-0.0001085069
557727.6900230160,0.0303649902,9.8001098636,-0.0114440918,0.0002821181,0.1744900174,-0.0000868056
557727.7000230160,0.0309753418,9.7964477542,-0.0309753418,0.0003255208,0.1746093750,-0.0000976562
557727.7100230160,0.0312805176,9.7973632816,-0.0234985352,0.0015842014,0.1745442708,-0.0000868056
557727.7200230160,0.0306701660,9.7999572757,-0.0115966797,-0.0003038194,0.1746527778,-0.0000976562
557727.7300230160,0.0305175781,9.7952270511,-0.0355529785,0.0012912326,0.1745442708,-0.0001085069
557727.7400230160,0.0305175781,9.8002624515,-0.0134277344,0.0008355035,0.1745768229,-0.0001085069
557727.7500230160,0.0315856934,9.7978210452,-0.0218200684,-0.0001085069,0.1745768229,-0.0001193576
557727.7600230160,0.0306701660,9.7947692874,-0.0299072266,0.0017252604,0.1744683160,-0.0000868056
557727.7700230160,0.0300598145,9.7999572757,-0.0111389160,0.0000217014,0.1745876736,-0.0000976562
557727.7800230170,0.0305175781,9.7952270511,-0.0329589844,0.0006727431,0.1747178819,-0.0000868056
557727.7900230170,0.0302124023,9.7984313968,-0.0184631348,0.0013563368,0.1746419271,-0.0000976562
557727.8000230170,0.0317382813,9.7994995120,-0.0154113770,-0.0003146701,0.1746419271,-0.0001193576
557727.8100230170,0.0309753418,9.7953796390,-0.0341796875,0.0015516493,0.1745117187,-0.0000976562
557727.8200230170,0.0296020508,9.7996520999,-0.0125122070,0.0005208333,0.1744249132,-0.0001085069
557727.8300230170,0.0302124023,9.7976684574,-0.0276184082,0.0000868056,0.1744900174,-0.0000868056
557727.8400230170,0.0314331055,9.7972106937,-0.0263977051,0.0016601562,0.1744900174,-0.0000868056
557727.8500230170,0.0326538086,9.7991943363,-0.0105285645,-0.0001627604,0.1745876736,-0.0001193576
557727.8600230170,0.0303649902,9.7953796390,-0.0352478027,0.0009765625,0.1745225694,-0.0000976562
557727.8700230171,0.0303649902,9.7993469241,-0.0158691406,0.0011501736,0.1745442708,-0.0000976562
557727.8800230169,0.0297546387,9.7994995120,-0.0187683105,-0.0003363715,0.1746527778,-0.0000976562
557727.8900230170,0.0315856934,9.7953796390,-0.0325012207,0.0016384549,0.1745008680,-0.0000868056
557727.9000230170,0.0314331055,9.8002624515,-0.0099182129,0.0003363715,0.1745442708,-0.0000976562
557727.9100230170,0.0300598145,9.7973632816,-0.0306701660,0.0002604167,0.1746744792,-0.0000868056
557727.9200230170,0.0296020508,9.7970581058,-0.0244140625,0.0016493056,0.1746744792,-0.0000868056
557727.9300230170,0.0321960449,9.7996520999,-0.0102233887,-0.0002604167,0.1746636285,-0.0000976562
557727.9400230170,0.0315856934,9.7958374027,-0.0343322754,0.0011935764,0.1745768229,-0.0001085069
557727.9500230170,0.0300598145,9.7991943363,-0.0157165527,0.0009657118,0.1745225694,-0.0000759549
557727.9600230170,0.0299072266,9.7987365726,-0.0219726563,-0.0002278646,0.1744791667,-0.0000976562
557727.9700230170,0.0315856934,9.7956848148,-0.0305175781,0.0016927083,0.1744574653,-0.0000868056
557727.9800230170,0.0318908691,9.8002624515,-0.0093078613,0.0001085069,0.1744900174,-0.0000976562
557727.9900230170,0.0305175781,9.7961425784,-0.0318908691,0.0005859375,0.1745659722,-0.0000976562
557728.0000230171,0.0303649902,9.7975158695,-0.0205993652,0.0014539931,0.1744900174,-0.0000976562
557728.0100230169,0.0317382813,9.7996520999,-0.0154113770,-0.0003255208,0.1749023437,-0.0001193576
557728.0200230170,0.0308227539,9.7950744632,-0.0358581543,0.0014539931,0.1744574653,-0.0001085069
557728.0300230170,0.0308227539,9.8001098636,-0.0125122070,0.0006076389,0.1745551215,-0.0000868056
557728.0400230170,0.0308227539,9.7978210452,-0.0250244141,0.0000542535,0.1746636285,-0.0000976562
557728.0500230170,0.0317382813,9.7962951663,-0.0262451172,0.0017035590,0.1746636285,-0.0000976562
557728.0600230170,0.0312805176,9.8001098636,-0.0117492676,-0.0001302083,0.1746636285,-0.0001193576
557728.0700230170,0.0311279297,9.7958374027,-0.0355529785,0.0009657118,0.1745876736,-0.0001085069
557728.0800230170,0.0308227539,9.7990417484,-0.0167846680,0.0011935764,0.1745985243,-0.0001085069
557728.0900230170,0.0305175781,9.7981262210,-0.0189208984,-0.0003038194,0.1745334201,-0.0000868056
557728.1000230170,0.0315856934,9.7953796390,-0.0326538086,0.0016384549,0.1745551215,-0.0000651042
557728.1100230170,0.0314331055,9.8005676273,-0.0112915039,0.0002495660,0.1745768229,-0.0000976562
557728.1200230171,0.0300598145,9.7964477542,-0.0294494629,0.0003689236,0.1745876736,-0.0001085069
557728.1300230169,0.0297546387,9.7976684574,-0.0225830078,0.0015842014,0.1745876736,-0.0001085069
557728.1400230170,0.0321960449,9.7999572757,-0.0126647949,-0.0002712674,0.1746310764,-0.0001193576
557728.1500230170,0.0314331055,9.7950744632,-0.0363159180,0.0012912326,0.1745117187,-0.0001085069
557728.1600230170,0.0300598145,9.7996520999,-0.0137329102,0.0008355035,0.1745225694,-0.0000976562
557728.1700230170,0.0294494629,9.7972106937,-0.0221252441,-0.0001410590,0.1745551215,-0.0000868056
557728.1800230170,0.0321960449,9.7964477542,-0.0297546387,0.0017361111,0.1745334201,-0.0000868056
557728.1900230170,0.0332641602,9.7999572757,-0.0106811523,0.0000542535,0.1746853299,-0.0001085069
557728.2000230170,0.0303649902,9.7964477542,-0.0335693359,0.0006727431,0.1746419271,-0.0000976562
557728.2100230170,0.0299072266,9.7978210452,-0.0201416016,0.0013997396,0.1745659722,-0.0000976562
557728.2200230170,0.0312805176,9.7987365726,-0.0148010254,-0.0003146701,0.1745551215,-0.0001193576
557728.2300230170,0.0318908691,9.7955322269,-0.0341796875,0.0014648437,0.1745008680,-0.0001085069
557728.2400230170,0.0311279297,9.7996520999,-0.0128173828,0.0005425347,0.1745551215,-0.0000868056
557728.2500230171,0.0302124023,9.7970581058,-0.0263977051,0.0000868056,0.1745008680,-0.0000976562
557728.2600230169,0.0312805176,9.7973632816,-0.0254821777,0.0016927083,0.1745985243,-0.0000868056
557728.2700230170,0.0320434570,9.7996520999,-0.0112915039,-0.0000976562,0.1746636285,-0.0000976562
557728.2800230170,0.0314331055,9.7956848148,-0.0349426270,0.0009331597,0.1745117187,-0.0001085069
557728.2900230170,0.0308227539,9.7987365726,-0.0163269043,0.0011718750,0.1744900174,-0.0000976562
557728.3000230170,0.0300598145,9.7987365726,-0.0175476074,-0.0003146701,0.1745659722,-0.0001193576
557728.3100230170,0.0306701660,9.7959899906,-0.0332641602,0.0016601562,0.1746202257,-0.0000868056
557728.3200230170,0.0326538086,9.8001098636,-0.0103759766,0.0003255208,0.1747287326,-0.0000976562
557728.3300230170,0.0315856934,9.7966003421,-0.0294494629,0.0003146701,0.1746310764,-0.0001085069
557728.3400230170,0.0308227539,9.7972106937,-0.0234985352,0.0016276042,0.1745225694,-0.0001085069
557728.3500230170,0.0302124023,9.7990417484,-0.0129699707,-0.0002821181,0.1745551215,-0.0000976562
557728.3600230170,0.0308227539,9.7952270511,-0.0352478027,0.0012044271,0.1745659722,-0.0000976562
557728.3700230171,0.0318908691,9.7998046878,-0.0137329102,0.0008789062,0.1745442708,-0.0000868056
557728.3800230169,0.0315856934,9.7981262210,-0.0222778320,-0.0001410590,0.1745985243,-0.0001193576
557728.3900230170,0.0308227539,9.7955322269,-0.0300598145,0.0017361111,0.1745876736,-0.0001085069
557728.4000230170,0.0308227539,9.8005676273,-0.0105285645,0.0000325521,0.1744900174,-0.0001193576
557728.4100230170,0.0303649902,9.7955322269,-0.0325012207,0.0007052951,0.1744683160,-0.0001085069
557728.4200230170,0.0314331055,9.7976684574,-0.0195312500,0.0013563368,0.1744683160,-0.0000868056
557728.4300230170,0.0321960449,9.7993469241,-0.0170898438,-0.0003146701,0.1745768229,-0.0000976562
557728.4400230170,0.0311279297,9.7956848148,-0.0343322754,0.0014865451,0.1745876736,-0.0001085069
557728.4500230170,0.0302124023,9.8001098636,-0.0114440918,0.0005208333,0.1745985243,-0.0000759549
557728.4600230170,0.0312805176,9.7975158695,-0.0262451172,0.0001519097,0.1745876736,-0.0000976562
557728.4700230170,0.0317382813,9.7962951663,-0.0248718262,0.0017252604,0.1745225694,-0.0001085069
557728.4800230170,0.0305175781,9.7999572757,-0.0119018555,-0.0002170139,0.1745008680,-0.0000976562
557728.4900230170,0.0309753418,9.7952270511,-0.0350952148,0.0010633681,0.1746744792,-0.0000868056
557728.5000230171,0.0314331055,9.7990417484,-0.0144958496,0.0010199653,0.1746744792,-0.0000868056
557728.5100230169,0.0321960449,9.7987365726,-0.0196838379,-0.0002387153,0.1746310764,-0.0000976562
557728.5200230170,0.0320434570,9.7956848148,-0.0315856934,0.0017144097,0.1745334201,-0.0001085069
557728.5300230170,0.0299072266,9.8004150394,-0.0119018555,0.0001953125,0.1745008680,-0.0001085069
557728.5400230170,0.0300598145,9.7964477542,-0.0306701660,0.0004991319,0.1745442708,-0.0001085069
557728.5500230170,0.0312805176,9.7975158695,-0.0204467773,0.0014756944,0.1745985243,-0.0001085069
557728.5600230170,0.0320434570,9.7994995120,-0.0148010254,-0.0003038194,0.1746310764,-0.0000976562
557728.5700230170,0.0317382813,9.7955322269,-0.0367736816,0.0013888889,0.1745008680,-0.0001085069
557728.5800230170,0.0303649902,9.7994995120,-0.0126647949,0.0006293403,0.1745225694,-0.0001085069
557728.5900230170,0.0302124023,9.7972106937,-0.0247192383,0.0000759549,0.1745008680,-0.0000976562
557728.6000230170,0.0309753418,9.7966003421,-0.0274658203,0.0017252604,0.1745117187,-0.0000976562
557728.6100230170,0.0328063965,9.8004150394,-0.0123596191,-0.0001519097,0.1746636285,-0.0000976562
557728.6200230171,0.0323486328,9.7952270511,-0.0340270996,0.0009765625,0.1747070312,-0.0001085069
557728.6300230169,0.0288391113,9.7998046878,-0.0161743164,0.0011284722,0.1745551215,-0.0000868056
557728.6400230170,0.0312805176,9.7988891605,-0.0205993652,-0.0002495660,0.1745659722,-0.0001193576
557728.6500230170,0.0323486328,9.7956848148,-0.0318908691,0.0016601562,0.1744574653,-0.0001085069
557728.6600230170,0.0321960449,9.8001098636,-0.0102233887,0.0002278646,0.1745008680,-0.0001085069
557728.6700230170,0.0306701660,9.7955322269,-0.0294494629,0.0004448785,0.1745442708,-0.0000976562
557728.6800230170,0.0300598145,9.7978210452,-0.0224304199,0.0015733507,0.1744900174,-0.0000976562
557728.6900230170,0.0320434570,9.7996520999,-0.0146484375,-0.0003363715,0.1745442708,-0.0000759549
557728.7000230170,0.0318908691,9.7955322269,-0.0357055664,0.0012912326,0.1745551215,-0.0001085069
557728.7100230170,0.0308227539,9.7990417484,-0.0117492676,0.0007921007,0.1745659722,-0.0000976562
557728.7200230170,0.0305175781,9.7982788089,-0.0224304199,-0.0000542535,0.1745876736,-0.0000976562
557728.7300230170,0.0312805176,9.7959899906,-0.0289916992,0.0017578125,0.1745117187,-0.0000976562
557728.7400230170,0.0328063965,9.8001098636,-0.0114440918,-0.0000108507,0.1746202257,-0.0001193576
557728.7500230171,0.0312805176,9.7959899906,-0.0340270996,0.0007595486,0.1747178819,-0.0001085069
557728.7600230169,0.0302124023,9.7988891605,-0.0181579590,0.0013237847,0.1745876736,-0.0000976562
557728.7700230170,0.0309753418,9.7984313968,-0.0163269043,-0.0003363715,0.1745985243,-0.0001193576
557728.7800230170,0.0317382813,9.7962951663,-0.0347900391,0.0015299479,0.1745551215,-0.0000868056
557728.7900230170,0.0326538086,9.7998046878,-0.0108337402,0.0005316840,0.1745768229,-0.0001193576
557728.8000230170,0.0303649902,9.7972106937,-0.0274658203,0.0001736111,0.1745008680,-0.0001302083
557728.8100230170,0.0308227539,9.7973632816,-0.0257873535,0.0017144097,0.1745334201,-0.0000976562
557728.8200230170,0.0314331055,9.7996520999,-0.0115966797,-0.0002604167,0.1745442708,-0.0000976562
557728.8300230170,0.0320434570,9.7959899906,-0.0352478027,0.0010525174,0.1745551215,-0.0000868056
557728.8400230170,0.0318908691,9.7985839847,-0.0152587891,0.0010850694,0.1745225694,-0.0001085069
557728.8500230170,0.0300598145,9.7987365726,-0.0202941895,-0.0002712674,0.1745768229,-0.0001302083
557728.8600230180,0.0308227539,9.7961425784,-0.0326538086,0.0017144097,0.1745551215,-0.0000868056
557728.8700230180,0.0323486328,9.7998046878,-0.0091552734,0.0002495660,0.1746093750,-0.0000759549
557728.8800230180,0.0317382813,9.7972106937,-0.0314331055,0.0004014757,0.1746853299,-0.0001085069
557728.8900230180,0.0311279297,9.7973632816,-0.0224304199,0.0015407986,0.1746527778,-0.0001085069
557728.9000230180,0.0306701660,9.7996520999,-0.0132751465,-0.0002604167,0.1745985243,-0.0000976562
557728.9100230180,0.0312805176,9.7953796390,-0.0338745117,0.0012695312,0.1746093750,-0.0000868056
557728.9200230180,0.0331115723,9.7993469241,-0.0138854980,0.0008463542,0.1745876736,-0.0001085069
557728.9300230180,0.0317382813,9.7982788089,-0.0233459473,-0.0000759549,0.1745551215,-0.0001302083
557728.9400230180,0.0299072266,9.7966003421,-0.0305175781,0.0017252604,0.1745225694,-0.0001193576
557728.9500230181,0.0309753418,9.8001098636,-0.0105285645,-0.0000108507,0.1745551215,-0.0000868056
557728.9600230179,0.0331115723,9.7961425784,-0.0318908691,0.0006944444,0.1745225694,-0.0000976562
557728.9700230180,0.0331115723,9.7984313968,-0.0180053711,0.0013780382,0.1744900174,-0.0001085069
557728.9800230180,0.0300598145,9.7981262210,-0.0190734863,-0.0002821181,0.1745334201,-0.0001193576
557728.9900230180,0.0299072266,9.7958374027,-0.0338745117,0.0015190972,0.1745008680,-0.0000976562
557729.0000230180,0.0318908691,9.8002624515,-0.0112915039,0.0004665799,0.1745876736,-0.0001085069
557729.0100230180,0.0326538086,9.7972106937,-0.0270080566,0.0002495660,0.1749565972,-0.0001302083
557729.0200230180,0.0318908691,9.7964477542,-0.0236511230,0.0016384549,0.1746527778,-0.0001085069
557729.0300230180,0.0302124023,9.7998046878,-0.0122070313,-0.0002495660,0.1746527778,-0.0000976562
557729.0400230180,0.0305175781,9.7953796390,-0.0364685059,0.0011067708,0.1745659722,-0.0000868056
557729.0500230180,0.0328063965,9.7993469241,-0.0141906738,0.0009982639,0.1745985243,-0.0001085069
557729.0600230180,0.0323486328,9.7981262210,-0.0204467773,-0.0001085069,0.1746310764,-0.0001302083
557729.0700230181,0.0305175781,9.7959899906,-0.0303649902,0.0017144097,0.1746744792,-0.0000976562
557729.0800230179,0.0303649902,9.8004150394,-0.0106811523,0.0000976562,0.1745985243,-0.0000976562
557729.0900230180,0.0318908691,9.7959899906,-0.0318908691,0.0005967882,0.1744574653,-0.0000868056
557729.1000230180,0.0325012207,9.7975158695,-0.0202941895,0.0014648437,0.1744683160,-0.0001085069
557729.1100230180,0.0317382813,9.7998046878,-0.0160217285,-0.0003363715,0.1746527778,-0.0001302083
557729.1200230180,0.0299072266,9.7956848148,-0.0349426270,0.0014973958,0.1745442708,-0.0000868056
557729.1300230180,0.0309753418,9.8001098636,-0.0115966797,0.0005533854,0.1745442708,-0.0000976562
557729.1400230180,0.0334167480,9.7970581058,-0.0256347656,0.0001193576,0.1745985243,-0.0001085069
557729.1500230180,0.0323486328,9.7967529300,-0.0265502930,0.0017144097,0.1745551215,-0.0000976562
557729.1600230180,0.0300598145,9.8002624515,-0.0129699707,-0.0002387153,0.1746419271,-0.0000976562
557729.1700230180,0.0309753418,9.7955322269,-0.0349426270,0.0010199653,0.1745768229,-0.0000868056
557729.1800230180,0.0325012207,9.7987365726,-0.0146484375,0.0010959201,0.1745985243,-0.0001085069
557729.1900230180,0.0326538086,9.7987365726,-0.0199890137,-0.0002495660,0.1745985243,-0.0001302083
557729.2000230181,0.0300598145,9.7958374027,-0.0331115723,0.0017469618,0.1745551215,-0.0001085069
557729.2100230179,0.0303649902,9.8004150394,-0.0103759766,0.0001627604,0.1745442708,-0.0001085069
557729.2200230180,0.0320434570,9.7961425784,-0.0302124023,0.0005099826,0.1744574653,-0.0000976562
557729.2300230180,0.0321960449,9.7981262210,-0.0212097168,0.0015190972,0.1744357639,-0.0000976562
557729.2400230180,0.0317382813,9.7994995120,-0.0146484375,-0.0003038194,0.1745334201,-0.0001193576
557729.2500230180,0.0302124023,9.7950744632,-0.0349426270,0.0013997396,0.1745117187,-0.0001085069
557729.2600230180,0.0321960449,9.7996520999,-0.0120544434,0.0007161458,0.1746093750,-0.0001085069
557729.2700230180,0.0323486328,9.7978210452,-0.0236511230,0.0000108507,0.1745659722,-0.0001193576
557729.2800230180,0.0318908691,9.7966003421,-0.0296020508,0.0017361111,0.1745551215,-0.0001085069
557729.2900230180,0.0303649902,9.7996520999,-0.0106811523,-0.0000759549,0.1746310764,-0.0001193576
557729.3000230180,0.0314331055,9.7956848148,-0.0343322754,0.0008029514,0.1745768229,-0.0000976562
557729.3100230180,0.0323486328,9.7987365726,-0.0172424316,0.0012369792,0.1745551215,-0.0000976562
557729.3200230181,0.0325012207,9.7988891605,-0.0172424316,-0.0002604167,0.1745659722,-0.0001302083
557729.3300230179,0.0309753418,9.7959899906,-0.0338745117,0.0016493056,0.1745985243,-0.0001193576
557729.3400230180,0.0308227539,9.7996520999,-0.0105285645,0.0003580729,0.1746310764,-0.0001302083
557729.3500230180,0.0314331055,9.7964477542,-0.0286865234,0.0002604167,0.1745334201,-0.0000976562
557729.3600230180,0.0320434570,9.7970581058,-0.0248718262,0.0016059028,0.1744683160,-0.0000976562
557729.3700230180,0.0315856934,9.8002624515,-0.0141906738,-0.0003038194,0.1745985243,-0.0001193576
557729.3800230180,0.0314331055,9.7955322269,-0.0343322754,0.0012152778,0.1746636285,-0.0000976562
557729.3900230180,0.0314331055,9.7993469241,-0.0122070313,0.0009223090,0.1745117187,-0.0001085069
557729.4000230180,0.0323486328,9.7970581058,-0.0228881836,-0.0000868056,0.1745551215,-0.0000976562
557729.4100230180,0.0312805176,9.7959899906,-0.0321960449,0.0017469618,0.1745117187,-0.0001085069
557729.4200230180,0.0314331055,9.8001098636,-0.0096130371,0.0000000000,0.1746961805,-0.0001085069
557729.4300230180,0.0309753418,9.7961425784,-0.0318908691,0.0006835937,0.1745768229,-0.0000976562
557729.4400230180,0.0320434570,9.7982788089,-0.0195312500,0.0013997396,0.1745768229,-0.0001193576
557729.4500230181,0.0328063965,9.7985839847,-0.0158691406,-0.0003363715,0.1746419271,-0.0001302083
557729.4600230179,0.0309753418,9.7950744632,-0.0355529785,0.0015299479,0.1745985243,-0.0001085069
557729.4700230180,0.0305175781,9.8001098636,-0.0102233887,0.0005750868,0.1745225694,-0.0000976562
557729.4800230180,0.0328063965,9.7967529300,-0.0263977051,0.0000759549,0.1745876736,-0.0001085069
557729.4900230180,0.0320434570,9.7959899906,-0.0280761719,0.0017252604,0.1744900174,-0.0000976562
557729.5000230180,0.0317382813,9.7998046878,-0.0120544434,-0.0001519097,0.1744791667,-0.0001193576
557729.5100230180,0.0309753418,9.7956848148,-0.0343322754,0.0008789062,0.1745225694,-0.0000976562
557729.5200230180,0.0318908691,9.7984313968,-0.0160217285,0.0012803819,0.1744791667,-0.0001193576
557729.5300230180,0.0329589844,9.7987365726,-0.0183105469,-0.0002821181,0.1745551215,-0.0001302083
557729.5400230180,0.0315856934,9.7958374027,-0.0352478027,0.0016276042,0.1745876736,-0.0000976562
557729.5500230180,0.0302124023,9.8002624515,-0.0112915039,0.0003689236,0.1745551215,-0.0001085069
557729.5600230180,0.0314331055,9.7962951663,-0.0277709961,0.0002278646,0.1745876736,-0.0000976562
557729.5700230181,0.0326538086,9.7966003421,-0.0234985352,0.0016167535,0.1745659722,-0.0000976562
557729.5800230179,0.0321960449,9.7998046878,-0.0132751465,-0.0001519097,0.1745985243,-0.0001302083
557729.5900230180,0.0300598145,9.7947692874,-0.0372314453,0.0011501736,0.1746961805,-0.0001085069
557729.6000230180,0.0318908691,9.7996520999,-0.0141906738,0.0008897569,0.1746527778,-0.0000976562
557729.6100230180,0.0326538086,9.7981262210,-0.0205993652,-0.0000759549,0.1745551215,-0.0001302083
557729.6200230180,0.0312805176,9.7961425784,-0.0292968750,0.0017252604,0.1745659722,-0.0001085069
557729.6300230180,0.0317382813,9.7998046878,-0.0111389160,0.0000325521,0.1745768229,-0.0001302083
557729.6400230180,0.0303649902,9.7958374027,-0.0338745117,0.0006076389,0.1744683160,-0.0000868056
557729.6500230180,0.0317382813,9.7979736331,-0.0181579590,0.0013780382,0.1745008680,-0.0001193576
557729.6600230180,0.0332641602,9.7990417484,-0.0137329102,-0.0002495660,0.1745876736,-0.0001302083
557729.6700230180,0.0305175781,9.7949218753,-0.0355529785,0.0015407986,0.1744574653,-0.0001193576
557729.6800230180,0.0309753418,9.8001098636,-0.0134277344,0.0005208333,0.1745334201,-0.0000976562
557729.6900230180,0.0326538086,9.7969055179,-0.0259399414,0.0001085069,0.1746202257,-0.0001085069
557729.7000230181,0.0315856934,9.7970581058,-0.0247192383,0.0016710069,0.1745117187,-0.0001085069
557729.7100230179,0.0320434570,9.7998046878,-0.0119018555,-0.0001736111,0.1745659722,-0.0001302083
557729.7200230180,0.0308227539,9.7952270511,-0.0367736816,0.0010633681,0.1745985243,-0.0001302083
557729.7300230180,0.0309753418,9.7991943363,-0.0166320801,0.0010525174,0.1745876736,-0.0001085069
557729.7400230180,0.0334167480,9.7981262210,-0.0184631348,-0.0001953125,0.1745985243,-0.0000976562
557729.7500230180,0.0320434570,9.7959899906,-0.0306701660,0.0017252604,0.1745334201,-0.0000976562
557729.7600230180,0.0306701660,9.7999572757,-0.0119018555,0.0001410590,0.1746202257,-0.0001302083
557729.7700230180,0.0317382813,9.7961425784,-0.0315856934,0.0004991319,0.1744900174,-0.0000976562
557729.7800230180,0.0309753418,9.7978210452,-0.0213623047,0.0014973958,0.1744900174,-0.0001085069
557729.7900230180,0.0332641602,9.8001098636,-0.0135803223,-0.0002821181,0.1746419271,-0.0001519097
557729.8000230180,0.0317382813,9.7953796390,-0.0349426270,0.0014322917,0.1744683160,-0.0001193576
557729.8100230180,0.0302124023,9.7998046878,-0.0135803223,0.0006944444,0.1745442708,-0.0001085069
557729.8200230181,0.0323486328,9.7978210452,-0.0242614746,0.0000000000,0.1746202257,-0.0000976562
557729.8300230179,0.0325012207,9.7967529300,-0.0274658203,0.0016927083,0.1745117187,-0.0000976562
557729.8400230180,0.0326538086,9.7993469241,-0.0117492676,-0.0000868056,0.1746419271,-0.0001410590
557729.8500230180,0.0312805176,9.7955322269,-0.0347900391,0.0009440104,0.1745985243,-0.0001085069
557729.8600230180,0.0318908691,9.7988891605,-0.0160217285,0.0011935764,0.1745768229,-0.0001085069
557729.8700230180,0.0332641602,9.7982788089,-0.0173950195,-0.0002170139,0.1746527778,-0.0001302083
557729.8800230180,0.0314331055,9.7953796390,-0.0329589844,0.0016927083,0.1745659722,-0.0000976562
557729.8900230180,0.0318908691,9.7998046878,-0.0119018555,0.0001844618,0.1746419271,-0.0000976562
557729.9000230180,0.0325012207,9.7964477542,-0.0302124023,0.0004557292,0.1745442708,-0.0000976562
557729.9100230180,0.0314331055,9.7979736331,-0.0216674805,0.0014973958,0.1745985243,-0.0001085069
557729.9200230180,0.0320434570,9.8002624515,-0.0154113770,-0.0002495660,0.1745768229,-0.0001193576
557729.9300230190,0.0314331055,9.7952270511,-0.0358581543,0.0013780382,0.1745442708,-0.0001302083
557729.9400230190,0.0315856934,9.7996520999,-0.0109863281,0.0007378472,0.1745985243,-0.0001085069
557729.9500230190,0.0318908691,9.7970581058,-0.0242614746,0.0000000000,0.1745659722,-0.0000976562
557729.9600230190,0.0323486328,9.7962951663,-0.0296020508,0.0017252604,0.1744791667,-0.0001085069
557729.9700230190,0.0318908691,9.7998046878,-0.0134277344,-0.0001085069,0.1744683160,-0.0001193576
557729.9800230190,0.0314331055,9.7956848148,-0.0334167480,0.0008897569,0.1745551215,-0.0001193576
557729.9900230190,0.0311279297,9.7985839847,-0.0148010254,0.0012586806,0.1745225694,-0.0000976562
557730.0000230190,0.0318908691,9.7985839847,-0.0184631348,-0.0002495660,0.1745768229,-0.0001302083
557730.0100230190,0.0328063965,9.7955322269,-0.0350952148,0.0016710069,0.1748480903,-0.0001085069
557730.0200230191,0.0317382813,9.8004150394,-0.0096130371,0.0002712674,0.1746093750,-0.0001302083
557730.0300230189,0.0314331055,9.7969055179,-0.0280761719,0.0002821181,0.1746310764,-0.0000976562
557730.0400230190,0.0315856934,9.7975158695,-0.0239562988,0.0016493056,0.1745117187,-0.0001085069
557730.0500230190,0.0329589844,9.7996520999,-0.0128173828,-0.0002495660,0.1746527778,-0.0001193576
557730.0600230190,0.0323486328,9.7958374027,-0.0357055664,0.0012369792,0.1745985243,-0.0001085069
557730.0700230190,0.0314331055,9.7991943363,-0.0131225586,0.0009331597,0.1745551215,-0.0000976562
557730.0800230190,0.0326538086,9.7982788089,-0.0225830078,-0.0001302083,0.1746527778,-0.0000976562
557730.0900230190,0.0317382813,9.7958374027,-0.0314331055,0.0017469618,0.1745768229,-0.0000976562
557730.1000230190,0.0317382813,9.8004150394,-0.0106811523,0.0000217014,0.1745442708,-0.0001302083
557730.1100230190,0.0320434570,9.7961425784,-0.0337219238,0.0006944444,0.1745442708,-0.0001085069
557730.1200230190,0.0326538086,9.7990417484,-0.0158691406,0.0013671875,0.1745442708,-0.0001193576
557730.1300230190,0.0314331055,9.7994995120,-0.0177001953,-0.0002387153,0.1745551215,-0.0001302083
557730.1400230190,0.0315856934,9.7958374027,-0.0354003906,0.0015516493,0.1745659722,-0.0000976562
557730.1500230191,0.0325012207,9.8004150394,-0.0111389160,0.0004448785,0.1745442708,-0.0000976562
557730.1600230190,0.0317382813,9.7964477542,-0.0273132324,0.0001953125,0.1745551215,-0.0001085069
557730.1700230190,0.0309753418,9.7969055179,-0.0242614746,0.0016601562,0.1744900174,-0.0001085069
557730.1800230190,0.0315856934,9.8001098636,-0.0135803223,-0.0001844618,0.1745876736,-0.0001302083
557730.1900230190,0.0323486328,9.7950744632,-0.0346374512,0.0011284722,0.1745225694,-0.0001193576
557730.2000230190,0.0323486328,9.7990417484,-0.0140380859,0.0009548611,0.1745768229,-0.0001193576
557730.2100230190,0.0318908691,9.7981262210,-0.0212097168,-0.0000651042,0.1745442708,-0.0000976562
557730.2200230190,0.0318908691,9.7964477542,-0.0297546387,0.0016710069,0.1745659722,-0.0000976562
557730.2300230190,0.0323486328,9.7994995120,-0.0125122070,0.0000325521,0.1745768229,-0.0000976562
557730.2400230190,0.0325012207,9.7956848148,-0.0325012207,0.0007052951,0.1745551215,-0.0001410590
557730.2500230190,0.0323486328,9.7973632816,-0.0172424316,0.0013671875,0.1745768229,-0.0001302083
557730.2600230190,0.0317382813,9.7991943363,-0.0178527832,-0.0002712674,0.1745768229,-0.0001193576
557730.2700230191,0.0318908691,9.7953796390,-0.0363159180,0.0016059028,0.1745768229,-0.0000976562
557730.2800230189,0.0326538086,9.8001098636,-0.0091552734,0.0004340278,0.1746093750,-0.0000976562
557730.2900230190,0.0326538086,9.7973632816,-0.0273132324,0.0001953125,0.1746961805,-0.0001085069
557730.3000230190,0.0317382813,9.7964477542,-0.0259399414,0.0017361111,0.1745768229,-0.0001085069
557730.3100230190,0.0311279297,9.8004150394,-0.0132751465,-0.0002495660,0.1745876736,-0.0001193576
557730.3200230190,0.0325012207,9.7944641116,-0.0352478027,0.0010850694,0.1745985243,-0.0001085069
557730.3300230190,0.0328063965,9.7987365726,-0.0132751465,0.0011176215,0.1745876736,-0.0001193576
557730.3400230190,0.0315856934,9.7985839847,-0.0213623047,-0.0001627604,0.1745768229,-0.0001193576
557730.3500230190,0.0315856934,9.7961425784,-0.0335693359,0.0016601562,0.1745008680,-0.0001085069
557730.3600230190,0.0331115723,9.8005676273,-0.0090026855,0.0001410590,0.1746202257,-0.0001085069
557730.3700230190,0.0321960449,9.7955322269,-0.0297546387,0.0005750868,0.1745334201,-0.0001193576
557730.3800230190,0.0312805176,9.7978210452,-0.0216674805,0.0014648437,0.1745117187,-0.0001085069
557730.3900230190,0.0325012207,9.7987365726,-0.0172424316,-0.0002604167,0.1745768229,-0.0001302083
557730.4000230191,0.0320434570,9.7956848148,-0.0337219238,0.0014648437,0.1744791667,-0.0001085069
557730.4100230190,0.0334167480,9.7994995120,-0.0099182129,0.0006184896,0.1745985243,-0.0001193576
557730.4200230190,0.0311279297,9.7966003421,-0.0268554688,0.0001410590,0.1745551215,-0.0001085069
557730.4300230190,0.0315856934,9.7964477542,-0.0274658203,0.0016710069,0.1745551215,-0.0001085069
557730.4400230190,0.0325012207,9.7999572757,-0.0117492676,-0.0001736111,0.1746527778,-0.0001193576
557730.4500230190,0.0318908691,9.7952270511,-0.0343322754,0.0010959201,0.1745551215,-0.0001193576
557730.4600230190,0.0325012207,9.7990417484,-0.0166320801,0.0010959201,0.1745117187,-0.0000976562
557730.4700230190,0.0325012207,9.7982788089,-0.0201416016,-0.0001844618,0.1746202257,-0.0001302083
557730.4800230190,0.0318908691,9.7958374027,-0.0311279297,0.0016927083,0.1744900174,-0.0001085069
557730.4900230190,0.0325012207,9.8001098636,-0.0105285645,0.0001736111,0.1745008680,-0.0000976562
557730.5000230190,0.0326538086,9.7959899906,-0.0317382813,0.0005750868,0.1745876736,-0.0001410590
557730.5100230190,0.0320434570,9.7979736331,-0.0212097168,0.0014539931,0.1745008680,-0.0001085069
557730.5200230191,0.0317382813,9.7996520999,-0.0160217285,-0.0002821181,0.1745768229,-0.0001193576
557730.5300230189,0.0323486328,9.7949218753,-0.0341796875,0.0014973958,0.1745768229,-0.0001085069
557730.5400230190,0.0328063965,9.7994995120,-0.0105285645,0.0006184896,0.1745768229,-0.0001085069
557730.5500230190,0.0317382813,9.7973632816,-0.0279235840,0.0000976562,0.1746853299,-0.0000976562
557730.5600230190,0.0318908691,9.7962951663,-0.0265502930,0.0016493056,0.1746093750,-0.0000976562
557730.5700230190,0.0332641602,9.7994995120,-0.0112915039,-0.0001736111,0.1746202257,-0.0001410590
557730.5800230190,0.0329589844,9.7953796390,-0.0346374512,0.0011067708,0.1745008680,-0.0001193576
557730.5900230190,0.0315856934,9.7988891605,-0.0149536133,0.0010850694,0.1745551215,-0.0001302083
557730.6000230190,0.0308227539,9.7976684574,-0.0204467773,-0.0001736111,0.1745659722,-0.0001193576
557730.6100230190,0.0321960449,9.7956848148,-0.0311279297,0.0016927083,0.1745985243,-0.0000868056
557730.6200230190,0.0335693359,9.7998046878,-0.0100708008,0.0001519097,0.1744683160,-0.0001085069
557730.6300230190,0.0318908691,9.7961425784,-0.0328063965,0.0005967882,0.1745659722,-0.0001410590
557730.6400230190,0.0311279297,9.7978210452,-0.0202941895,0.0014431424,0.1745117187,-0.0001302083
557730.6500230191,0.0318908691,9.7993469241,-0.0144958496,-0.0003038194,0.1745551215,-0.0001193576
557730.6600230190,0.0328063965,9.7955322269,-0.0347900391,0.0014973958,0.1745442708,-0.0001193576
557730.6700230190,0.0341796875,9.7993469241,-0.0111389160,0.0005967882,0.1745768229,-0.0001193576
557730.6800230190,0.0315856934,9.7975158695,-0.0273132324,0.0001410590,0.1746202257,-0.0001302083
557730.6900230190,0.0309753418,9.7964477542,-0.0265502930,0.0017144097,0.1746202257,-0.0000976562
557730.7000230190,0.0331115723,9.8002624515,-0.0109863281,-0.0001953125,0.1746961805,-0.0001193576
557730.7100230190,0.0341796875,9.7952270511,-0.0350952148,0.0010633681,0.1746310764,-0.0001193576
557730.7200230190,0.0326538086,9.7987365726,-0.0148010254,0.0010633681,0.1745551215,-0.0001302083
557730.7300230190,0.0303649902,9.7982788089,-0.0199890137,-0.0001627604,0.1746419271,-0.0001193576
557730.7400230190,0.0308227539,9.7958374027,-0.0317382813,0.0017252604,0.1744900174,-0.0000976562
557730.7500230190,0.0331115723,9.7999572757,-0.0108337402,0.0001519097,0.1745985243,-0.0000868056
557730.7600230190,0.0338745117,9.7964477542,-0.0323486328,0.0005750868,0.1745442708,-0.0001085069
557730.7700230191,0.0306701660,9.7976684574,-0.0201416016,0.0014322917,0.1744791667,-0.0001085069
557730.7800230189,0.0309753418,9.7988891605,-0.0138854980,-0.0002604167,0.1746636285,-0.0001193576
557730.7900230190,0.0329589844,9.7958374027,-0.0349426270,0.0015190972,0.1745551215,-0.0000976562
557730.8000230190,0.0338745117,9.7998046878,-0.0128173828,0.0005750868,0.1745876736,-0.0001085069
557730.8100230190,0.0328063965,9.7978210452,-0.0265502930,0.0001519097,0.1746636285,-0.0000976562
557730.8200230190,0.0308227539,9.7970581058,-0.0248718262,0.0017035590,0.1745008680,-0.0001085069
557730.8300230190,0.0318908691,9.7999572757,-0.0109863281,-0.0001627604,0.1745985243,-0.0000976562
557730.8400230190,0.0337219238,9.7956848148,-0.0354003906,0.0010416667,0.1746093750,-0.0001193576
557730.8500230190,0.0332641602,9.7991943363,-0.0141906738,0.0010850694,0.1745117187,-0.0001302083
557730.8600230190,0.0312805176,9.7985839847,-0.0205993652,-0.0001627604,0.1745551215,-0.0001410590
557730.8700230190,0.0311279297,9.7961425784,-0.0325012207,0.0017252604,0.1745659722,-0.0000868056
557730.8800230190,0.0329589844,9.7999572757,-0.0106811523,0.0001627604,0.1745008680,-0.0000976562
557730.8900230190,0.0337219238,9.7958374027,-0.0306701660,0.0005750868,0.1745659722,-0.0001085069
557730.9000230191,0.0320434570,9.7982788089,-0.0205993652,0.0014539931,0.1745876736,-0.0001085069
557730.9100230190,0.0312805176,9.7990417484,-0.0164794922,-0.0002604167,0.1745659722,-0.0001302083
557730.9200230190,0.0318908691,9.7955322269,-0.0343322754,0.0014431424,0.1745551215,-0.0001085069
557730.9300230190,0.0335693359,9.7998046878,-0.0108337402,0.0006076389,0.1746310764,-0.0001193576
557730.9400230190,0.0328063965,9.7973632816,-0.0259399414,0.0001953125,0.1745768229,-0.0001085069
557730.9500230190,0.0318908691,9.7973632816,-0.0270080566,0.0016384549,0.1745225694,-0.0001085069
557730.9600230190,0.0317382813,9.7998046878,-0.0128173828,-0.0001085069,0.1745985243,-0.0000976562
557730.9700230190,0.0315856934,9.7959899906,-0.0332641602,0.0010199653,0.1745876736,-0.0001085069
557730.9800230190,0.0338745117,9.7993469241,-0.0137329102,0.0010308160,0.1746527778,-0.0000976562
557730.9900230190,0.0328063965,9.7979736331,-0.0224304199,-0.0000542535,0.1746202257,-0.0001410590
557731.0000230200,0.0311279297,9.7970581058,-0.0314331055,0.0017144097,0.1746636285,-0.0001085069
557731.0100230200,0.0321960449,9.7994995120,-0.0096130371,0.0001193576,0.1748806424,-0.0001085069
557731.0200230200,0.0328063965,9.7961425784,-0.0302124023,0.0006076389,0.1745442708,-0.0000976562
557731.0300230200,0.0331115723,9.7973632816,-0.0210571289,0.0014648437,0.1745551215,-0.0001193576
557731.0400230200,0.0314331055,9.7993469241,-0.0172424316,-0.0002821181,0.1745659722,-0.0001302083
557731.0500230200,0.0320434570,9.7958374027,-0.0335693359,0.0014431424,0.1745768229,-0.0001085069
557731.0600230200,0.0334167480,9.7994995120,-0.0108337402,0.0006293403,0.1744574653,-0.0000976562
557731.0700230200,0.0320434570,9.7978210452,-0.0263977051,0.0001627604,0.1745659722,-0.0001302083
557731.0800230200,0.0332641602,9.7970581058,-0.0268554688,0.0017035590,0.1745117187,-0.0000976562
557731.0900230200,0.0320434570,9.7996520999,-0.0117492676,-0.0001844618,0.1745008680,-0.0001302083
557731.1000230199,0.0314331055,9.7959899906,-0.0346374512,0.0010416667,0.1746093750,-0.0001193576
557731.1100230200,0.0338745117,9.7991943363,-0.0144958496,0.0010959201,0.1745768229,-0.0001085069
557731.1200230200,0.0315856934,9.7984313968,-0.0216674805,-0.0001736111,0.1745659722,-0.0001302083
557731.1300230200,0.0325012207,9.7958374027,-0.0311279297,0.0017035590,0.1745876736,-0.0001193576
557731.1400230200,0.0332641602,9.7996520999,-0.0086975098,0.0001844618,0.1745985243,-0.0001410590
557731.1500230200,0.0315856934,9.7958374027,-0.0314331055,0.0005967882,0.1745117187,-0.0001193576
557731.1600230200,0.0331115723,9.7982788089,-0.0212097168,0.0014105903,0.1745876736,-0.0001085069
557731.1700230200,0.0331115723,9.7996520999,-0.0160217285,-0.0002604167,0.1745659722,-0.0001410590
557731.1800230200,0.0318908691,9.7952270511,-0.0341796875,0.0014431424,0.1745008680,-0.0001302083
557731.1900230200,0.0328063965,9.7996520999,-0.0115966797,0.0006618924,0.1745659722,-0.0001519097
557731.2000230200,0.0323486328,9.7973632816,-0.0253295898,0.0001193576,0.1745659722,-0.0001085069
557731.2100230200,0.0325012207,9.7966003421,-0.0274658203,0.0017035590,0.1744249132,-0.0000976562
557731.2200230201,0.0335693359,9.7996520999,-0.0122070313,-0.0001627604,0.1745117187,-0.0001302083
557731.2300230199,0.0315856934,9.7950744632,-0.0338745117,0.0010416667,0.1744791667,-0.0001193576
557731.2400230200,0.0326538086,9.7994995120,-0.0148010254,0.0010850694,0.1745117187,-0.0001193576
557731.2500230200,0.0329589844,9.7987365726,-0.0213623047,-0.0001844618,0.1747721354,-0.0001302083
557731.2600230200,0.0334167480,9.7961425784,-0.0328063965,0.0016927083,0.1747395833,-0.0001085069
557731.2700230200,0.0323486328,9.7996520999,-0.0093078613,0.0001953125,0.1746093750,-0.0001302083
557731.2800230200,0.0318908691,9.7964477542,-0.0306701660,0.0005316840,0.1745659722,-0.0000976562
557731.2900230200,0.0317382813,9.7975158695,-0.0227355957,0.0015516493,0.1745117187,-0.0001085069
557731.3000230200,0.0331115723,9.7996520999,-0.0137329102,-0.0003146701,0.1745117187,-0.0001193576
557731.3100230200,0.0334167480,9.7950744632,-0.0349426270,0.0013671875,0.1745659722,-0.0001193576
557731.3200230200,0.0321960449,9.7987365726,-0.0120544434,0.0007703993,0.1745551215,-0.0001410590
557731.3300230200,0.0318908691,9.7981262210,-0.0239562988,0.0000217014,0.1745442708,-0.0001193576
557731.3400230200,0.0335693359,9.7967529300,-0.0288391113,0.0017252604,0.1744574653,-0.0001085069
557731.3500230199,0.0331115723,9.8001098636,-0.0112915039,-0.0001085069,0.1744357639,-0.0001193576
557731.3600230200,0.0321960449,9.7952270511,-0.0332641602,0.0009440104,0.1745442708,-0.0001193576
557731.3700230200,0.0320434570,9.7981262210,-0.0154113770,0.0011501736,0.1745551215,-0.0001193576
557731.3800230200,0.0318908691,9.7981262210,-0.0215148926,-0.0001736111,0.1745551215,-0.0001302083
557731.3900230200,0.0335693359,9.7955322269,-0.0325012207,0.0016276042,0.1746419271,-0.0001193576
557731.4000230200,0.0329589844,9.7998046878,-0.0083923340,0.0002604167,0.1745334201,-0.0001085069
557731.4100230200,0.0331115723,9.7961425784,-0.0302124023,0.0005099826,0.1745768229,-0.0001193576
557731.4200230200,0.0317382813,9.7978210452,-0.0225830078,0.0015299479,0.1745985243,-0.0001085069
557731.4300230200,0.0329589844,9.7990417484,-0.0143432617,-0.0002821181,0.1745659722,-0.0001302083
557731.4400230200,0.0317382813,9.7956848148,-0.0343322754,0.0013237847,0.1745551215,-0.0001410590
557731.4500230200,0.0328063965,9.7994995120,-0.0111389160,0.0008246528,0.1745551215,-0.0001302083
557731.4600230200,0.0317382813,9.7973632816,-0.0250244141,0.0000000000,0.1744791667,-0.0001193576
557731.4700230201,0.0326538086,9.7966003421,-0.0306701660,0.0017795139,0.1744574653,-0.0001085069
557731.4800230199,0.0335693359,9.8010253909,-0.0099182129,-0.0000651042,0.1745334201,-0.0001193576
557731.4900230200,0.0332641602,9.7961425784,-0.0323486328,0.0008246528,0.1745551215,-0.0001519097
557731.5000230200,0.0318908691,9.7979736331,-0.0175476074,0.0013237847,0.1745551215,-0.0001193576
557731.5100230200,0.0329589844,9.7988891605,-0.0180053711,-0.0003146701,0.1746636285,-0.0001302083
557731.5200230200,0.0326538086,9.7955322269,-0.0347900391,0.0016493056,0.1745442708,-0.0001085069
557731.5300230200,0.0331115723,9.7996520999,-0.0086975098,0.0003797743,0.1745334201,-0.0001085069
557731.5400230200,0.0337219238,9.7966003421,-0.0286865234,0.0003580729,0.1746527778,-0.0001302083
557731.5500230200,0.0317382813,9.7969055179,-0.0244140625,0.0016384549,0.1745117187,-0.0001085069
557731.5600230200,0.0331115723,9.8001098636,-0.0126647949,-0.0002604167,0.1746961805,-0.0001193576
557731.5700230200,0.0326538086,9.7950744632,-0.0343322754,0.0012152778,0.1745985243,-0.0001085069
557731.5800230200,0.0331115723,9.7987365726,-0.0132751465,0.0009331597,0.1745117187,-0.0001085069
557731.5900230200,0.0335693359,9.7975158695,-0.0227355957,-0.0000976562,0.1746310764,-0.0001302083
557731.6000230199,0.0325012207,9.7964477542,-0.0315856934,0.0017795139,0.1745334201,-0.0001085069
557731.6100230200,0.0317382813,9.8001098636,-0.0090026855,0.0000217014,0.1745442708,-0.0001302083
557731.6200230200,0.0326538086,9.7955322269,-0.0311279297,0.0007161458,0.1746310764,-0.0001085069
557731.6300230200,0.0326538086,9.7979736331,-0.0204467773,0.0014105903,0.1745985243,-0.0001085069
557731.6400230200,0.0335693359,9.7987365726,-0.0180053711,-0.0003146701,0.1746310764,-0.0001410590
557731.6500230200,0.0317382813,9.7946166995,-0.0349426270,0.0015190972,0.1745768229,-0.0001085069
557731.6600230200,0.0326538086,9.8002624515,-0.0091552734,0.0005859375,0.1745985243,-0.0001085069
557731.6700230200,0.0340270996,9.7972106937,-0.0265502930,0.0001844618,0.1745876736,-0.0001085069
557731.6800230200,0.0334167480,9.7969055179,-0.0285339355,0.0017144097,0.1745985243,-0.0001085069
557731.6900230200,0.0328063965,9.7999572757,-0.0111389160,-0.0001736111,0.1746636285,-0.0001302083
557731.7000230200,0.0317382813,9.7953796390,-0.0329589844,0.0010199653,0.1745442708,-0.0001302083
557731.7100230200,0.0321960449,9.7994995120,-0.0160217285,0.0012044271,0.1745008680,-0.0001085069
557731.7200230201,0.0334167480,9.7982788089,-0.0202941895,-0.0002278646,0.1745768229,-0.0001302083
557731.7300230199,0.0320434570,9.7961425784,-0.0340270996,0.0016601562,0.1743706597,-0.0001085069
557731.7400230200,0.0332641602,9.8001098636,-0.0074768066,0.0003255208,0.1745442708,-0.0001302083
557731.7500230200,0.0331115723,9.7964477542,-0.0282287598,0.0003797743,0.1745768229,-0.0001302083
557731.7600230200,0.0328063965,9.7969055179,-0.0253295898,0.0016493056,0.1744574653,-0.0001085069
557731.7700230200,0.0329589844,9.7993469241,-0.0138854980,-0.0002712674,0.1746636285,-0.0001410590
557731.7800230200,0.0321960449,9.7953796390,-0.0335693359,0.0012586806,0.1745659722,-0.0001085069
557731.7900230200,0.0326538086,9.7996520999,-0.0129699707,0.0009440104,0.1744791667,-0.0001085069
557731.8000230200,0.0328063965,9.7978210452,-0.0221252441,-0.0000759549,0.1746636285,-0.0001302083
557731.8100230200,0.0331115723,9.7962951663,-0.0315856934,0.0017144097,0.1746202257,-0.0001193576
557731.8200230200,0.0332641602,9.7999572757,-0.0086975098,0.0000325521,0.1745768229,-0.0001302083
557731.8300230200,0.0329589844,9.7958374027,-0.0320434570,0.0007269965,0.1746744792,-0.0001410590
557731.8400230200,0.0326538086,9.7988891605,-0.0209045410,0.0013997396,0.1745659722,-0.0001302083
557731.8500230199,0.0326538086,9.7991943363,-0.0175476074,-0.0002387153,0.1745659722,-0.0001302083
557731.8600230200,0.0328063965,9.7953796390,-0.0328063965,0.0015299479,0.1745442708,-0.0000976562
557731.8700230200,0.0331115723,9.8001098636,-0.0097656250,0.0005533854,0.1744900174,-0.0001085069
557731.8800230200,0.0335693359,9.7972106937,-0.0283813477,0.0001953125,0.1745551215,-0.0001302083
557731.8900230200,0.0321960449,9.7970581058,-0.0270080566,0.0017252604,0.1745008680,-0.0001193576
557731.9000230200,0.0325012207,9.8001098636,-0.0109863281,-0.0001953125,0.1745551215,-0.0001193576
557731.9100230200,0.0323486328,9.7955322269,-0.0347900391,0.0011176215,0.1746419271,-0.0001193576
557731.9200230200,0.0329589844,9.7994995120,-0.0152587891,0.0010959201,0.1745985243,-0.0001085069
557731.9300230200,0.0323486328,9.7979736331,-0.0204467773,-0.0001627604,0.1745876736,-0.0001302083
557731.9400230200,0.0326538086,9.7962951663,-0.0315856934,0.0016601562,0.1746636285,-0.0000976562
557731.9500230200,0.0338745117,9.7998046878,-0.0085449219,0.0002278646,0.1745768229,-0.0001302083
557731.9600230200,0.0331115723,9.7967529300,-0.0309753418,0.0005316840,0.1745659722,-0.0001410590
557731.9700230201,0.0323486328,9.7975158695,-0.0218200684,0.0014973958,0.1745876736,-0.0001085069
557731.9800230199,0.0321960449,9.7998046878,-0.0144958496,-0.0002712674,0.1745768229,-0.0001302083
557731.9900230200,0.0329589844,9.7956848148,-0.0341796875,0.0014539931,0.1745008680,-0.0001085069
557732.0000230200,0.0328063965,9.8001098636,-0.0102233887,0.0006727431,0.1745768229,-0.0001193576
557732.0100230200,0.0326538086,9.7972106937,-0.0273132324,0.0001085069,0.1748372396,-0.0000976562
557732.0200230200,0.0332641602,9.7959899906,-0.0288391113,0.0017469618,0.1744791667,-0.0000976562
557732.0300230200,0.0331115723,9.8007202152,-0.0085449219,-0.0001736111,0.1745659722,-0.0001410590
557732.0400230200,0.0326538086,9.7950744632,-0.0332641602,0.0010091146,0.1744683160,-0.0001193576
557732.0500230200,0.0312805176,9.7990417484,-0.0181579590,0.0012369792,0.1745659722,-0.0000976562
557732.0600230200,0.0337219238,9.7985839847,-0.0198364258,-0.0002712674,0.1745985243,-0.0001193576
557732.0700230200,0.0321960449,9.7956848148,-0.0325012207,0.0016493056,0.1744357639,-0.0001085069
557732.0800230210,0.0331115723,9.8007202152,-0.0080871582,0.0003580729,0.1746419271,-0.0001302083
557732.0900230210,0.0332641602,9.7967529300,-0.0297546387,0.0003472222,0.1746310764,-0.0001302083
557732.1000230210,0.0318908691,9.7973632816,-0.0242614746,0.0016276042,0.1745442708,-0.0001193576
557732.1100230210,0.0340270996,9.7993469241,-0.0122070313,-0.0003255208,0.1747178819,-0.0001410590
557732.1200230210,0.0334167480,9.7950744632,-0.0340270996,0.0013671875,0.1745768229,-0.0001193576
557732.1300230210,0.0318908691,9.7993469241,-0.0134277344,0.0008572049,0.1744466146,-0.0001193576
557732.1400230210,0.0334167480,9.7979736331,-0.0231933594,-0.0000542535,0.1746419271,-0.0001193576
557732.1500230210,0.0334167480,9.7958374027,-0.0286865234,0.0017903646,0.1745117187,-0.0001085069
557732.1600230210,0.0332641602,9.8001098636,-0.0096130371,-0.0000434028,0.1745442708,-0.0001410590
557732.1700230211,0.0334167480,9.7966003421,-0.0332641602,0.0007921007,0.1746310764,-0.0001193576
557732.1800230209,0.0320434570,9.7979736331,-0.0189208984,0.0014105903,0.1743923611,-0.0001193576
557732.1900230210,0.0329589844,9.7999572757,-0.0173950195,-0.0003472222,0.1745008680,-0.0001193576
557732.2000230210,0.0340270996,9.7958374027,-0.0349426270,0.0016167535,0.1745551215,-0.0000976562
557732.2100230210,0.0325012207,9.8002624515,-0.0091552734,0.0005533854,0.1744900174,-0.0001193576
557732.2200230210,0.0329589844,9.7972106937,-0.0271606445,0.0002061632,0.1746093750,-0.0001410590
557732.2300230210,0.0340270996,9.7970581058,-0.0262451172,0.0016493056,0.1746093750,-0.0001085069
557732.2400230210,0.0329589844,9.7999572757,-0.0128173828,-0.0001627604,0.1745768229,-0.0001302083
557732.2500230210,0.0340270996,9.7962951663,-0.0331115723,0.0011501736,0.1746310764,-0.0001085069
557732.2600230210,0.0325012207,9.7994995120,-0.0149536133,0.0010525174,0.1745985243,-0.0001193576
557732.2700230210,0.0317382813,9.7985839847,-0.0230407715,-0.0001085069,0.1746202257,-0.0000976562
557732.2800230210,0.0338745117,9.7962951663,-0.0300598145,0.0017252604,0.1746961805,-0.0001193576
557732.2900230211,0.0340270996,9.8002624515,-0.0085449219,0.0000976562,0.1745659722,-0.0001085069
557732.3000230209,0.0325012207,9.7966003421,-0.0315856934,0.0006510417,0.1745225694,-0.0001193576
557732.3100230210,0.0315856934,9.7981262210,-0.0216674805,0.0014648437,0.1745659722,-0.0001193576
557732.3200230210,0.0326538086,9.7993469241,-0.0154113770,-0.0003038194,0.1744791667,-0.0000976562
557732.3300230210,0.0341796875,9.7959899906,-0.0332641602,0.0015190972,0.1744574653,-0.0001085069
557732.3400230210,0.0335693359,9.7999572757,-0.0102233887,0.0006293403,0.1745008680,-0.0001085069
557732.3500230210,0.0325012207,9.7973632816,-0.0263977051,0.0001627604,0.1745334201,-0.0001085069
557732.3600230210,0.0326538086,9.7970581058,-0.0271606445,0.0016710069,0.1745225694,-0.0001193576
557732.3700230210,0.0340270996,9.7998046878,-0.0109863281,-0.0001410590,0.1746310764,-0.0001302083
557732.3800230210,0.0341796875,9.7958374027,-0.0334167480,0.0011067708,0.1745659722,-0.0001085069
557732.3900230210,0.0335693359,9.7988891605,-0.0158691406,0.0010850694,0.1745225694,-0.0001193576
557732.4000230210,0.0318908691,9.7982788089,-0.0199890137,-0.0001085069,0.1746636285,-0.0001302083
557732.4100230210,0.0326538086,9.7961425784,-0.0311279297,0.0016601562,0.1746202257,-0.0000976562
557732.4200230211,0.0355529785,9.7998046878,-0.0100708008,0.0001627604,0.1745551215,-0.0001302083
557732.4300230209,0.0332641602,9.7967529300,-0.0311279297,0.0005967882,0.1745551215,-0.0001519097
557732.4400230210,0.0315856934,9.7985839847,-0.0212097168,0.0015190972,0.1745442708,-0.0001302083
557732.4500230210,0.0315856934,9.7987365726,-0.0144958496,-0.0002712674,0.1744791667,-0.0001302083
557732.4600230210,0.0350952148,9.7956848148,-0.0335693359,0.0014973958,0.1746202257,-0.0001085069
557732.4700230210,0.0347900391,9.8001098636,-0.0120544434,0.0006727431,0.1744900174,-0.0001193576
557732.4800230210,0.0325012207,9.7976684574,-0.0253295898,0.0000651042,0.1745008680,-0.0001410590
557732.4900230210,0.0317382813,9.7962951663,-0.0254821777,0.0017795139,0.1745768229,-0.0001085069
557732.5000230210,0.0329589844,9.7998046878,-0.0108337402,-0.0000759549,0.1745768229,-0.0001410590
557732.5100230210,0.0337219238,9.7958374027,-0.0358581543,0.0009548611,0.1745551215,-0.0001193576
557732.5200230210,0.0347900391,9.7987365726,-0.0152587891,0.0012261285,0.1746419271,-0.0001193576
557732.5300230210,0.0311279297,9.7991943363,-0.0160217285,-0.0002170139,0.1745876736,-0.0001302083
557732.5400230211,0.0329589844,9.7956848148,-0.0335693359,0.0017144097,0.1745768229,-0.0001085069
557732.5500230209,0.0335693359,9.8002624515,-0.0108337402,0.0002929687,0.1745876736,-0.0001302083
557732.5600230210,0.0341796875,9.7964477542,-0.0292968750,0.0004123264,0.1745008680,-0.0001410590
557732.5700230210,0.0328063965,9.7976684574,-0.0225830078,0.0015733507,0.1744140625,-0.0001085069
557732.5800230210,0.0321960449,9.7996520999,-0.0129699707,-0.0002278646,0.1745442708,-0.0001193576
557732.5900230210,0.0323486328,9.7959899906,-0.0358581543,0.0013237847,0.1745117187,-0.0000976562
557732.6000230210,0.0350952148,9.7994995120,-0.0123596191,0.0008463542,0.1745442708,-0.0001085069
557732.6100230210,0.0346374512,9.7982788089,-0.0219726563,-0.0000217014,0.1746527778,-0.0001302083
557732.6200230210,0.0317382813,9.7969055179,-0.0299072266,0.0017903646,0.1745551215,-0.0001193576
557732.6300230210,0.0328063965,9.7999572757,-0.0100708008,0.0000108507,0.1745985243,-0.0001302083
557732.6400230210,0.0341796875,9.7966003421,-0.0338745117,0.0006944444,0.1746093750,-0.0001410590
557732.6500230210,0.0343322754,9.7984313968,-0.0177001953,0.0014431424,0.1745659722,-0.0001085069
557732.6600230210,0.0335693359,9.7993469241,-0.0146484375,-0.0002495660,0.1746853299,-0.0001410590
557732.6700230211,0.0326538086,9.7959899906,-0.0347900391,0.0015733507,0.1745551215,-0.0001085069
557732.6800230209,0.0334167480,9.8004150394,-0.0112915039,0.0005316840,0.1745985243,-0.0001193576
557732.6900230210,0.0335693359,9.7970581058,-0.0262451172,0.0001410590,0.1746419271,-0.0001302083
557732.7000230210,0.0332641602,9.7969055179,-0.0250244141,0.0017252604,0.1745008680,-0.0001193576
557732.7100230210,0.0329589844,9.7994995120,-0.0109863281,-0.0001627604,0.1745442708,-0.0001410590
557732.7200230210,0.0318908691,9.7953796390,-0.0349426270,0.0010850694,0.1744791667,-0.0001085069
557732.7300230210,0.0338745117,9.7990417484,-0.0152587891,0.0011935764,0.1744900174,-0.0001085069
557732.7400230210,0.0341796875,9.7990417484,-0.0181579590,-0.0002387153,0.1746202257,-0.0001193576
557732.7500230210,0.0331115723,9.7953796390,-0.0329589844,0.0017144097,0.1745876736,-0.0001302083
557732.7600230210,0.0331115723,9.7998046878,-0.0099182129,0.0002604167,0.1746093750,-0.0001410590
557732.7700230210,0.0326538086,9.7959899906,-0.0296020508,0.0004340278,0.1746093750,-0.0001193576
557732.7800230210,0.0332641602,9.7975158695,-0.0213623047,0.0016059028,0.1745876736,-0.0001193576
557732.7900230211,0.0341796875,9.7993469241,-0.0134277344,-0.0002387153,0.1746419271,-0.0001410590
557732.8000230209,0.0321960449,9.7953796390,-0.0361633301,0.0013780382,0.1745768229,-0.0001193576
557732.8100230210,0.0328063965,9.7988891605,-0.0129699707,0.0008680556,0.1745551215,-0.0001085069
557732.8200230210,0.0331115723,9.7981262210,-0.0212097168,-0.0000868056,0.1746202257,-0.0001302083
557732.8300230210,0.0329589844,9.7964477542,-0.0289916992,0.0017469618,0.1744574653,-0.0001302083
557732.8400230210,0.0335693359,9.7999572757,-0.0106811523,0.0000325521,0.1745008680,-0.0001302083
557732.8500230210,0.0328063965,9.7955322269,-0.0314331055,0.0007703993,0.1745876736,-0.0001085069
557732.8600230210,0.0323486328,9.7982788089,-0.0186157227,0.0013563368,0.1745225694,-0.0001193576
557732.8700230210,0.0343322754,9.7982788089,-0.0154113770,-0.0001736111,0.1746636285,-0.0001193576
557732.8800230210,0.0344848633,9.7966003421,-0.0334167480,0.0015733507,0.1745985243,-0.0001193576
557732.8900230210,0.0335693359,9.7990417484,-0.0106811523,0.0004340278,0.1745442708,-0.0001519097
557732.9000230210,0.0326538086,9.7975158695,-0.0280761719,0.0003363715,0.1745659722,-0.0000976562
557732.9100230210,0.0321960449,9.7964477542,-0.0238037109,0.0016167535,0.1745659722,-0.0001410590
557732.9200230211,0.0354003906,9.7996520999,-0.0119018555,-0.0001953125,0.1746202257,-0.0001193576
557732.9300230209,0.0341796875,9.7952270511,-0.0355529785,0.0013020833,0.1746093750,-0.0001193576
557732.9400230210,0.0325012207,9.7991943363,-0.0135803223,0.0009548611,0.1746527778,-0.0001193576
557732.9500230210,0.0329589844,9.7985839847,-0.0210571289,-0.0001302083,0.1746419271,-0.0001410590
557732.9600230210,0.0332641602,9.7959899906,-0.0302124023,0.0017361111,0.1745117187,-0.0001085069
557732.9700230210,0.0335693359,9.7998046878,-0.0090026855,0.0000651042,0.1745551215,-0.0001410590
557732.9800230210,0.0337219238,9.7959899906,-0.0328063965,0.0007161458,0.1745659722,-0.0001193576
557732.9900230210,0.0321960449,9.7978210452,-0.0192260742,0.0014539931,0.1745985243,-0.0001193576
557733.0000230210,0.0335693359,9.7991943363,-0.0158691406,-0.0002712674,0.1745876736,-0.0001193576
557733.0100230210,0.0331115723,9.7955322269,-0.0335693359,0.0015190972,0.1748372396,-0.0000976562
557733.0200230210,0.0334167480,9.7993469241,-0.0099182129,0.0006293403,0.1745768229,-0.0001410590
557733.0300230210,0.0328063965,9.7976684574,-0.0256347656,0.0000976562,0.1745008680,-0.0001085069
557733.0400230211,0.0334167480,9.7962951663,-0.0270080566,0.0017469618,0.1744900174,-0.0001193576
557733.0500230209,0.0334167480,9.7999572757,-0.0105285645,-0.0001302083,0.1745117187,-0.0001410590
557733.0600230210,0.0340270996,9.7955322269,-0.0344848633,0.0011067708,0.1745008680,-0.0001193576
557733.0700230210,0.0329589844,9.7985839847,-0.0138854980,0.0011067708,0.1745117187,-0.0001085069
557733.0800230210,0.0325012207,9.7985839847,-0.0198364258,-0.0001519097,0.1746636285,-0.0001302083
557733.0900230210,0.0334167480,9.7959899906,-0.0318908691,0.0017144097,0.1746093750,-0.0001085069
557733.1000230210,0.0332641602,9.7996520999,-0.0102233887,0.0001519097,0.1745551215,-0.0001085069
557733.1100230210,0.0332641602,9.7959899906,-0.0305175781,0.0005750868,0.1746744792,-0.0001193576
557733.1200230210,0.0332641602,9.7975158695,-0.0201416016,0.0015733507,0.1745876736,-0.0001193576
557733.1300230210,0.0337219238,9.7994995120,-0.0138854980,-0.0002821181,0.1746419271,-0.0001302083
557733.1400230210,0.0329589844,9.7952270511,-0.0358581543,0.0013888889,0.1745768229,-0.0001085069
557733.1500230220,0.0337219238,9.7991943363,-0.0103759766,0.0007812500,0.1745551215,-0.0001193576
557733.1600230220,0.0338745117,9.7976684574,-0.0233459473,0.0000325521,0.1745768229,-0.0001410590
557733.1700230220,0.0337219238,9.7964477542,-0.0292968750,0.0017469618,0.1745659722,-0.0001302083
557733.1800230220,0.0323486328,9.8004150394,-0.0109863281,-0.0000651042,0.1745334201,-0.0001193576
557733.1900230220,0.0325012207,9.7959899906,-0.0332641602,0.0009548611,0.1745442708,-0.0001085069
557733.2000230220,0.0341796875,9.7985839847,-0.0146484375,0.0012369792,0.1745008680,-0.0001085069
557733.2100230220,0.0337219238,9.7985839847,-0.0189208984,-0.0001736111,0.1745768229,-0.0001410590
