t(s),acc_x,acc_y,acc_z,gyro_x,gyro_y,gyro_z
558958.0000241620,-0.0885009766,0.0083923340,9.7810363773,-0.0001085069,-0.0000000000,0.0000217014
558958.0100241620,-0.0901794434,0.0038146973,9.7814941409,0.0001844618,-0.0000000000,0.0000325521
558958.0200241620,-0.0903320313,0.0062561035,9.7813415531,-0.0004557292,-0.0000000000,0.0000217014
558958.0300241620,-0.0866699219,0.0057983398,9.7810363773,0.0004123264,-0.0000217014,0.0000325521
558958.0400241620,-0.0874328613,0.0030517578,9.7814941409,-0.0006184896,0.0000325521,0.0000325521
558958.0500241620,-0.0901794434,0.0080871582,9.7813415531,0.0004557292,-0.0000325521,0.0000542535
558958.0600241621,-0.0894165039,0.0012207031,9.7811889652,-0.0005425347,-0.0000000000,0.0000217014
558958.0700241619,-0.0869750977,0.0100708008,9.7813415531,0.0003146701,-0.0000000000,0.0000325521
558958.0800241620,-0.0868225098,0.0009155273,9.7813415531,-0.0002495660,-0.0000000000,0.0000217014
558958.0900241620,-0.0903320313,0.0097656250,9.7819519046,-0.0000325521,0.0000108507,0.0000325521
558958.1000241620,-0.0897216797,0.0027465820,9.7816467288,0.0000976562,-0.0000000000,0.0000325521
558958.1100241620,-0.0877380371,0.0071716309,9.7811889652,-0.0004557292,-0.0000000000,0.0000325521
558958.1200241620,-0.0874328613,0.0059509277,9.7808837894,0.0004340278,0.0000108507,0.0000325521
558958.1300241620,-0.0900268555,0.0032043457,9.7808837894,-0.0005967882,0.0000108507,0.0000325521
558958.1400241620,-0.0894165039,0.0094604492,9.7810363773,0.0005316840,-0.0000434028,0.0000325521
558958.1500241620,-0.0869750977,0.0012207031,9.7814941409,-0.0005533854,0.0000108507,0.0000325521
558958.1600241620,-0.0871276855,0.0100708008,9.7821044925,0.0002712674,-0.0000000000,0.0000434028
558958.1700241620,-0.0892639160,0.0007629395,9.7813415531,-0.0002061632,0.0000217014,0.0000325521
558958.1800241621,-0.0897216797,0.0091552734,9.7819519046,-0.0001627604,-0.0000000000,0.0000000000
558958.1900241619,-0.0872802734,0.0042724609,9.7807312015,0.0002387153,-0.0000108507,-0.0003472222
558958.2000241620,-0.0857543945,0.0062561035,9.7814941409,-0.0004882812,0.0000108507,-0.0015516493
558958.2100241620,-0.0869750977,0.0093078613,9.7816467288,0.0005099826,-0.0000000000,-0.0034830729
558958.2200241620,-0.0892639160,0.0038146973,9.7813415531,-0.0005533854,-0.0000000000,-0.0049045139
558958.2300241620,-0.0868225098,0.0108337402,9.7814941409,0.0004991319,-0.0000000000,-0.0062174479
558958.2400241620,-0.0860595703,0.0027465820,9.7814941409,-0.0004123264,0.0000108507,-0.0073242187
558958.2500241620,-0.0878906250,0.0093078613,9.7821044925,0.0002278646,-0.0000108507,-0.0079101562
558958.2600241620,-0.0889587402,0.0025939941,9.7817993167,-0.0000217014,0.0000325521,-0.0087565104
558958.2700241620,-0.0878906250,0.0094604492,9.7813415531,-0.0001085069,-0.0000000000,-0.0095811632
558958.2800241620,-0.0869750977,0.0053405762,9.7819519046,0.0003689236,-0.0000217014,-0.0101996528
558958.2900241630,-0.0872802734,0.0054931641,9.7811889652,-0.0004448785,0.0000108507,-0.0111219618
558958.3000241630,-0.0881958008,0.0073242188,9.7813415531,0.0005533854,0.0000108507,-0.0118164062
558958.3100241630,-0.0875854492,0.0048828125,9.7811889652,-0.0005316840,0.0000108507,-0.0127387153
558958.3200241630,-0.0881958008,0.0102233887,9.7813415531,0.0005316840,-0.0000108507,-0.0138780382
558958.3300241630,-0.0868225098,-0.0000000000,9.7814941409,-0.0003146701,-0.0000000000,-0.0146701389
558958.3400241630,-0.0872802734,0.0111389160,9.7817993167,0.0002604167,0.0000108507,-0.0156250000
558958.3500241630,-0.0891113281,0.0036621094,9.7816467288,0.0000434028,-0.0000217014,-0.0166341146
558958.3600241630,-0.0894165039,0.0085449219,9.7813415531,-0.0000976562,-0.0000000000,-0.0172960069
558958.3700241630,-0.0871276855,0.0039672852,9.7816467288,0.0004340278,-0.0000000000,-0.0183268229
558958.3800241631,-0.0869750977,0.0065612793,9.7814941409,-0.0003689236,0.0000325521,-0.0191948785
558958.3900241629,-0.0881958008,0.0094604492,9.7811889652,0.0006184896,-0.0000217014,-0.0199327257
558958.4000241630,-0.0883483887,0.0039672852,9.7819519046,-0.0004340278,-0.0000000000,-0.0211046007
558958.4100241630,-0.0885009766,0.0096130371,9.7813415531,0.0006293403,-0.0000325521,-0.0218315972
558958.4200241630,-0.0868225098,0.0019836426,9.7816467288,-0.0002821181,0.0000217014,-0.0225368924
558958.4300241630,-0.0863647461,0.0119018555,9.7813415531,0.0003906250,0.0000217014,-0.0236219618
558958.4400241630,-0.0894165039,0.0019836426,9.7816467288,0.0000325521,-0.0000000000,-0.0242187500
558958.4500241630,-0.0878906250,0.0093078613,9.7817993167,0.0000000000,-0.0000000000,-0.0252170139
558958.4600241630,-0.0872802734,0.0050354004,9.7814941409,0.0004665799,-0.0000217014,-0.0263454861
558958.4700241630,-0.0875854492,0.0070190430,9.7814941409,-0.0003146701,-0.0000000000,-0.0268988715
558958.4800241630,-0.0881958008,0.0086975098,9.7816467288,0.0007486979,-0.0000217014,-0.0282009549
558958.4900241630,-0.0889587402,0.0024414063,9.7813415531,-0.0004014757,-0.0000000000,-0.0289388021
558958.5000241630,-0.0878906250,0.0108337402,9.7819519046,0.0006618924,-0.0000108507,-0.0294596354
558958.5100241631,-0.0862121582,0.0024414063,9.7816467288,-0.0001519097,0.0000217014,-0.0304144965
558958.5200241629,-0.0889587402,0.0100708008,9.7816467288,0.0002712674,-0.0000000000,-0.0312825521
558958.5300241630,-0.0895690918,0.0033569336,9.7811889652,0.0003580729,-0.0000108507,-0.0320095486
558958.5400241630,-0.0885009766,0.0080871582,9.7817993167,-0.0001302083,0.0000108507,-0.0332248264
558958.5500241630,-0.0860595703,0.0071716309,9.7807312015,0.0007052951,-0.0000434028,-0.0339192708
558958.5600241630,-0.0878906250,0.0038146973,9.7813415531,-0.0003255208,0.0000217014,-0.0347981771
558958.5700241630,-0.0880432129,0.0094604492,9.7813415531,0.0007812500,-0.0000000000,-0.0359809028
558958.5800241630,-0.0885009766,0.0022888184,9.7816467288,-0.0002495660,-0.0000108507,-0.0366319444
558958.5900241630,-0.0868225098,0.0112915039,9.7816467288,0.0005642361,-0.0000108507,-0.0376085069
558958.6000241630,-0.0869750977,0.0015258789,9.7808837894,0.0001519097,0.0000108507,-0.0383897569
558958.6100241630,-0.0878906250,0.0090026855,9.7821044925,0.0001410590,-0.0000000000,-0.0390407986
558958.6200241630,-0.0877380371,0.0051879883,9.7813415531,0.0005967882,-0.0000108507,-0.0401584201
558958.6300241631,-0.0875854492,0.0064086914,9.7816467288,-0.0002061632,0.0000217014,-0.0410156250
558958.6400241629,-0.0868225098,0.0077819824,9.7817993167,0.0008463542,-0.0000217014,-0.0417317708
558958.6500241630,-0.0885009766,0.0035095215,9.7819519046,-0.0003363715,0.0000217014,-0.0428493924
558958.6600241630,-0.0894165039,0.0109863281,9.7813415531,0.0007812500,-0.0000325521,-0.0434895833
558958.6700241630,-0.0872802734,0.0013732910,9.7816467288,-0.0000542535,0.0000217014,-0.0443033854
558958.6800241630,-0.0874328613,0.0102233887,9.7811889652,0.0005208333,-0.0000000000,-0.0454644097
558958.6900241630,-0.0869750977,0.0028991699,9.7811889652,0.0003363715,-0.0000000000,-0.0460394965
558958.7000241630,-0.0885009766,0.0105285645,9.7819519046,0.0000325521,0.0000108507,-0.0470160590
558958.7100241630,-0.0875854492,0.0050354004,9.7817993167,0.0007052951,-0.0000434028,-0.0480251736
558958.7200241630,-0.0878906250,0.0044250488,9.7810363773,-0.0001519097,0.0000217014,-0.0485134549
558958.7300241630,-0.0863647461,0.0091552734,9.7814941409,0.0009331597,-0.0000217014,-0.0495442708
558958.7400241630,-0.0886535645,0.0032043457,9.7813415531,-0.0001844618,0.0000108507,-0.0505967882
558958.7500241630,-0.0883483887,0.0105285645,9.7811889652,0.0008029514,-0.0000217014,-0.0513888889
558958.7600241631,-0.0871276855,0.0012207031,9.7814941409,0.0000434028,0.0000217014,-0.0522894965
558958.7700241629,-0.0868225098,0.0102233887,9.7810363773,0.0005316840,-0.0000108507,-0.0530056424
558958.7800241630,-0.0885009766,0.0033569336,9.7804260257,0.0003906250,-0.0000325521,-0.0536783854
558958.7900241630,-0.0878906250,0.0093078613,9.7821044925,0.0001410590,0.0000325521,-0.0550347222
558958.8000241630,-0.0880432129,0.0042724609,9.7811889652,0.0007595486,-0.0000434028,-0.0557400174
558958.8100241630,-0.0869750977,0.0064086914,9.7811889652,-0.0000542535,0.0000108507,-0.0565863715
558958.8200241630,-0.0857543945,0.0090026855,9.7819519046,0.0009765625,0.0000217014,-0.0576388889
558958.8300241630,-0.0881958008,0.0027465820,9.7810363773,-0.0001627604,-0.0000108507,-0.0582790799
558958.8400241630,-0.0878906250,0.0094604492,9.7816467288,0.0009114583,-0.0000108507,-0.0592773437
558958.8500241630,-0.0888061523,0.0025939941,9.7813415531,0.0000325521,-0.0000000000,-0.0601345486
558958.8600241630,-0.0886535645,0.0103759766,9.7816467288,0.0006076389,-0.0000108507,-0.0606770833
558958.8700241630,-0.0878906250,0.0033569336,9.7814941409,0.0004448785,-0.0000000000,-0.0618923611
558958.8800241631,-0.0886535645,0.0080871582,9.7817993167,0.0002604167,-0.0000000000,-0.0627604167
558958.8900241629,-0.0851440430,0.0051879883,9.7816467288,0.0008246528,-0.0000108507,-0.0635091146
558958.9000241630,-0.0871276855,0.0059509277,9.7816467288,-0.0000108507,-0.0000000000,-0.0645399306
558958.9100241630,-0.0874328613,0.0079345703,9.7808837894,0.0010091146,-0.0000108507,-0.0651475694
558958.9200241630,-0.0880432129,0.0025939941,9.7810363773,-0.0000868056,0.0000108507,-0.0660590278
558958.9300241630,-0.0872802734,0.0103759766,9.7817993167,0.0009765625,-0.0000108507,-0.0672200521
558958.9400241630,-0.0872802734,0.0019836426,9.7817993167,0.0001627604,0.0000108507,-0.0678168403
558958.9500241630,-0.0881958008,0.0106811523,9.7819519046,0.0006727431,-0.0000217014,-0.0687282986
558958.9600241630,-0.0878906250,0.0028991699,9.7817993167,0.0005316840,-0.0000217014,-0.0696289062
558958.9700241630,-0.0894165039,0.0085449219,9.7817993167,0.0002604167,-0.0000108507,-0.0703993056
558958.9800241630,-0.0869750977,0.0064086914,9.7819519046,0.0009114583,-0.0000325521,-0.0714409722
558958.9900241630,-0.0874328613,0.0050354004,9.7816467288,-0.0000325521,0.0000108507,-0.0723198785
558959.0000241630,-0.0880432129,0.0086975098,9.7810363773,0.0011284722,-0.0000108507,-0.0729817708
558959.0100241631,-0.0880432129,0.0033569336,9.7810363773,0.0000434028,0.0000108507,-0.0742730035
558959.0200241629,-0.0892639160,0.0102233887,9.7810363773,0.0009331597,-0.0000217014,-0.0747612847
558959.0300241630,-0.0868225098,0.0021362305,9.7807312015,0.0003038194,-0.0000217014,-0.0755316840
558959.0400241630,-0.0862121582,0.0097656250,9.7814941409,0.0006618924,0.0000325521,-0.0766818576
558959.0500241630,-0.0868225098,0.0021362305,9.7816467288,0.0005859375,-0.0000434028,-0.0773980035
558959.0600241630,-0.0881958008,0.0099182129,9.7810363773,0.0004123264,-0.0000217014,-0.0784396701
558959.0700241630,-0.0874328613,0.0050354004,9.7821044925,0.0008572049,-0.0000217014,-0.0794270833
558959.0800241630,-0.0875854492,0.0053405762,9.7817993167,0.0001844618,-0.0000000000,-0.0799479167
558959.0900241630,-0.0894165039,0.0077819824,9.7816467288,0.0011393229,-0.0000217014,-0.0807183160
558959.1000241630,-0.0877380371,0.0042724609,9.7811889652,0.0000000000,-0.0000000000,-0.0818359375
558959.1100241630,-0.0885009766,0.0102233887,9.7813415531,0.0011393229,-0.0000108507,-0.0824978299
558959.1200241630,-0.0877380371,0.0016784668,9.7814941409,0.0001627604,-0.0000000000,-0.0836480035
558959.1300241631,-0.0863647461,0.0109863281,9.7808837894,0.0009223090,-0.0000217014,-0.0845269097
558959.1400241629,-0.0881958008,0.0025939941,9.7814941409,0.0005859375,-0.0000000000,-0.0853407118
558959.1500241630,-0.0891113281,0.0106811523,9.7813415531,0.0005208333,-0.0000000000,-0.0862847222
558959.1600241630,-0.0868225098,0.0032043457,9.7817993167,0.0009440104,-0.0000000000,-0.0870334201
558959.1700241630,-0.0871276855,0.0068664551,9.7821044925,0.0001844618,-0.0000000000,-0.0879123264
558959.1800241630,-0.0871276855,0.0079345703,9.7808837894,0.0012044271,-0.0000217014,-0.0890625000
558959.1900241630,-0.0900268555,0.0041198730,9.7817993167,0.0000868056,-0.0000108507,-0.0896918403
558959.2000241630,-0.0886535645,0.0096130371,9.7814941409,0.0012044271,-0.0000542535,-0.0907443576
558959.2100241630,-0.0868225098,0.0016784668,9.7811889652,0.0002712674,0.0000217014,-0.0914279514
558959.2200241630,-0.0878906250,0.0100708008,9.7810363773,0.0010199653,-0.0000434028,-0.0920355903
558959.2300241630,-0.0885009766,0.0035095215,9.7822570804,0.0005316840,0.0000108507,-0.0931857639
558959.2400241630,-0.0878906250,0.0082397461,9.7821044925,0.0006184896,0.0000108507,-0.0940646701
558959.2500241630,-0.0866699219,0.0032043457,9.7808837894,0.0009657118,-0.0000434028,-0.0947591146
558959.2600241631,-0.0869750977,0.0073242188,9.7822570804,0.0002604167,0.0000217014,-0.0958767361
558959.2700241629,-0.0889587402,0.0082397461,9.7814941409,0.0012912326,-0.0000434028,-0.0966688368
558959.2800241630,-0.0885009766,0.0038146973,9.7817993167,0.0001627604,-0.0000217014,-0.0974283854
558959.2900241630,-0.0872802734,0.0099182129,9.7819519046,0.0012803819,-0.0000000000,-0.0984917535
558959.3000241630,-0.0885009766,0.0019836426,9.7811889652,0.0003038194,-0.0000108507,-0.0991319444
558959.3100241630,-0.0881958008,0.0105285645,9.7814941409,0.0010091146,-0.0000217014,-0.1000651042
558959.3200241630,-0.0878906250,0.0033569336,9.7808837894,0.0005859375,-0.0000217014,-0.1011827257
558959.3300241630,-0.0869750977,0.0093078613,9.7816467288,0.0007595486,-0.0000000000,-0.1016384549
558959.3400241630,-0.0881958008,0.0047302246,9.7810363773,0.0010308160,-0.0000217014,-0.1027343750
558959.3500241630,-0.0886535645,0.0068664551,9.7813415531,0.0002821181,-0.0000000000,-0.1037109375
558959.3600241630,-0.0869750977,0.0082397461,9.7819519046,0.0013888889,-0.0000108507,-0.1043619792
558959.3700241640,-0.0872802734,0.0036621094,9.7813415531,0.0001953125,-0.0000000000,-0.1056423611
558959.3800241640,-0.0878906250,0.0099182129,9.7807312015,0.0012586806,-0.0000108507,-0.1063368056
558959.3900241640,-0.0875854492,0.0024414063,9.7819519046,0.0004774306,-0.0000108507,-0.1069444444
558959.4000241640,-0.0875854492,0.0105285645,9.7808837894,0.0009874132,-0.0000000000,-0.1082248264
558959.4100241640,-0.0886535645,0.0022888184,9.7814941409,0.0008355035,-0.0000217014,-0.1088216146
558959.4200241640,-0.0877380371,0.0099182129,9.7816467288,0.0006401910,-0.0000000000,-0.1095920139
558959.4300241640,-0.0860595703,0.0047302246,9.7817993167,0.0011827257,-0.0000217014,-0.1106011285
558959.4400241640,-0.0889587402,0.0061035156,9.7819519046,0.0003580729,-0.0000217014,-0.1112630208
558959.4500241640,-0.0872802734,0.0085449219,9.7814941409,0.0014105903,-0.0000217014,-0.1123806424
558959.4600241639,-0.0878906250,0.0035095215,9.7821044925,0.0002495660,0.0000108507,-0.1134440104
558959.4700241640,-0.0880432129,0.0106811523,9.7805786136,0.0013563368,-0.0000542535,-0.1139214410
558959.4800241640,-0.0885009766,0.0015258789,9.7819519046,0.0005099826,-0.0000000000,-0.1150173611
558959.4900241640,-0.0871276855,0.0094604492,9.7817993167,0.0010742187,-0.0000000000,-0.1158528646
558959.5000241640,-0.0854492188,0.0042724609,9.7811889652,0.0008789062,-0.0000217014,-0.1166015625
558959.5100241640,-0.0868225098,0.0099182129,9.7816467288,0.0006727431,-0.0000000000,-0.1176106771
558959.5200241640,-0.0872802734,0.0041198730,9.7814941409,0.0012478299,-0.0000434028,-0.1182725694
558959.5300241640,-0.0871276855,0.0057983398,9.7811889652,0.0004123264,-0.0000000000,-0.1192274306
558959.5400241640,-0.0866699219,0.0097656250,9.7819519046,0.0014973958,-0.0000108507,-0.1203125000
558959.5500241640,-0.0872802734,0.0036621094,9.7810363773,0.0003580729,-0.0000108507,-0.1210394965
558959.5600241640,-0.0875854492,0.0099182129,9.7819519046,0.0013997396,-0.0000108507,-0.1219943576
558959.5700241640,-0.0880432129,0.0004577637,9.7810363773,0.0006293403,-0.0000108507,-0.1230360243
558959.5800241641,-0.0881958008,0.0109863281,9.7817993167,0.0010525174,-0.0000325521,-0.1236436632
558959.5900241639,-0.0872802734,0.0048828125,9.7817993167,0.0010199653,-0.0000000000,-0.1246527778
558959.6000241640,-0.0874328613,0.0068664551,9.7813415531,0.0006401910,-0.0000108507,-0.1254991319
558959.6100241640,-0.0872802734,0.0056457520,9.7819519046,0.0014105903,-0.0000217014,-0.1262261285
558959.6200241640,-0.0877380371,0.0067138672,9.7811889652,0.0004882812,-0.0000000000,-0.1274305556
558959.6300241640,-0.0880432129,0.0091552734,9.7816467288,0.0014756944,-0.0000325521,-0.1280490451
558959.6400241640,-0.0859069824,0.0027465820,9.7813415531,0.0004774306,-0.0000000000,-0.1285047743
558959.6500241640,-0.0862121582,0.0097656250,9.7817993167,0.0014539931,-0.0000325521,-0.1298502604
558959.6600241640,-0.0883483887,0.0032043457,9.7814941409,0.0006618924,-0.0000217014,-0.1306749132
558959.6700241640,-0.0869750977,0.0119018555,9.7813415531,0.0011393229,-0.0000217014,-0.1316840278
558959.6800241640,-0.0878906250,0.0027465820,9.7814941409,0.0011501736,-0.0000000000,-0.1326388889
558959.6900241640,-0.0875854492,0.0077819824,9.7805786136,0.0006944444,-0.0000217014,-0.1330512153
558959.7000241640,-0.0872802734,0.0083923340,9.7810363773,0.0015407986,-0.0000108507,-0.1340928819
558959.7100241639,-0.0868225098,0.0039672852,9.7810363773,0.0004123264,-0.0000000000,-0.1350802951
558959.7200241640,-0.0865173340,0.0103759766,9.7819519046,0.0016059028,-0.0000434028,-0.1357421875
558959.7300241640,-0.0871276855,0.0018310547,9.7813415531,0.0006184896,-0.0000108507,-0.1367404514
558959.7400241640,-0.0878906250,0.0114440918,9.7813415531,0.0013237847,-0.0000434028,-0.1376193576
558959.7500241640,-0.0872802734,0.0033569336,9.7814941409,0.0010308160,-0.0000325521,-0.1384982639
558959.7600241640,-0.0880432129,0.0083923340,9.7816467288,0.0008355035,-0.0000000000,-0.1394097222
558959.7700241640,-0.0872802734,0.0047302246,9.7814941409,0.0015407986,-0.0000325521,-0.1401150174
558959.7800241640,-0.0866699219,0.0067138672,9.7816467288,0.0004557292,-0.0000108507,-0.1409939236
558959.7900241640,-0.0877380371,0.0094604492,9.7821044925,0.0016601562,-0.0000542535,-0.1421766493
558959.8000241640,-0.0875854492,0.0013732910,9.7813415531,0.0006076389,-0.0000000000,-0.1429144965
558959.8100241640,-0.0866699219,0.0111389160,9.7813415531,0.0014973958,-0.0000325521,-0.1439344618
558959.8200241640,-0.0877380371,0.0035095215,9.7814941409,0.0009440104,-0.0000000000,-0.1448567708
558959.8300241641,-0.0878906250,0.0097656250,9.7813415531,0.0010633681,-0.0000325521,-0.1454535590
558959.8400241639,-0.0868225098,0.0042724609,9.7814941409,0.0013563368,-0.0000217014,-0.1464843750
558959.8500241640,-0.0881958008,0.0059509277,9.7814941409,0.0006727431,-0.0000000000,-0.1472222222
558959.8600241640,-0.0878906250,0.0086975098,9.7811889652,0.0016927083,-0.0000434028,-0.1479166667
558959.8700241640,-0.0862121582,0.0044250488,9.7813415531,0.0005859375,-0.0000217014,-0.1489800347
558959.8800241640,-0.0880432129,0.0088500977,9.7816467288,0.0016276042,-0.0000434028,-0.1498480903
558959.8900241640,-0.0871276855,0.0016784668,9.7816467288,0.0007703993,-0.0000217014,-0.1506076389
558959.9000241640,-0.0875854492,0.0117492676,9.7819519046,0.0014648437,-0.0000434028,-0.1518012153
558959.9100241640,-0.0860595703,0.0039672852,9.7813415531,0.0010091146,-0.0000000000,-0.1524848090
558959.9200241640,-0.0871276855,0.0088500977,9.7814941409,0.0011284722,-0.0000434028,-0.1533962674
558959.9300241640,-0.0875854492,0.0027465820,9.7807312015,0.0013888889,-0.0000217014,-0.1543728299
558959.9400241640,-0.0875854492,0.0073242188,9.7814941409,0.0008572049,-0.0000108507,-0.1547960069
558959.9500241640,-0.0849914551,0.0093078613,9.7816467288,0.0017361111,-0.0000108507,-0.1558485243
558959.9600241639,-0.0875854492,0.0035095215,9.7811889652,0.0005859375,-0.0000325521,-0.1570095486
558959.9700241640,-0.0877380371,0.0091552734,9.7816467288,0.0017795139,-0.0000651042,-0.1576388889
558959.9800241640,-0.0868225098,0.0021362305,9.7814941409,0.0008463542,-0.0000108507,-0.1588541667
558959.9900241640,-0.0869750977,0.0131225586,9.7811889652,0.0013671875,-0.0000325521,-0.1595703125
558960.0000241640,-0.0878906250,0.0033569336,9.7813415531,0.0013454861,-0.0000217014,-0.1602213542
558960.0100241640,-0.0865173340,0.0068664551,9.7817993167,0.0009223090,-0.0000108507,-0.1615993924
558960.0200241640,-0.0868225098,0.0059509277,9.7821044925,0.0018120660,-0.0000434028,-0.1619791667
558960.0300241640,-0.0862121582,0.0074768066,9.7816467288,0.0006835937,0.0000108507,-0.1628797743
558960.0400241640,-0.0872802734,0.0102233887,9.7810363773,0.0018229167,-0.0000434028,-0.1639322917
558960.0500241640,-0.0872802734,-0.0000000000,9.7811889652,0.0007486979,-0.0000325521,-0.1644748264
558960.0600241640,-0.0875854492,0.0112915039,9.7814941409,0.0017144097,-0.0000542535,-0.1654513889
558960.0700241640,-0.0872802734,0.0033569336,9.7810363773,0.0010633681,-0.0000217014,-0.1663519965
558960.0800241641,-0.0868225098,0.0102233887,9.7819519046,0.0012695312,-0.0000217014,-0.1669813368
558960.0900241639,-0.0872802734,0.0035095215,9.7810363773,0.0015407986,-0.0000217014,-0.1682183160
558960.1000241640,-0.0860595703,0.0067138672,9.7814941409,0.0009006076,-0.0000000000,-0.1691189236
558960.1100241640,-0.0868225098,0.0090026855,9.7811889652,0.0018663194,-0.0000434028,-0.1698893229
558960.1200241640,-0.0872802734,0.0041198730,9.7817993167,0.0006618924,-0.0000108507,-0.1709092882
558960.1300241640,-0.0860595703,0.0097656250,9.7817993167,0.0018663194,-0.0000434028,-0.1716037326
558960.1400241640,-0.0877380371,0.0021362305,9.7817993167,0.0010199653,-0.0000434028,-0.1725477430
558960.1500241640,-0.0874328613,0.0119018555,9.7817993167,0.0015407986,-0.0000325521,-0.1736653646
558960.1600241640,-0.0874328613,0.0042724609,9.7811889652,0.0013780382,-0.0000542535,-0.1741970486
558960.1700241640,-0.0868225098,0.0076293945,9.7821044925,0.0011284722,-0.0000000000,-0.1751193576
558960.1800241640,-0.0869750977,0.0050354004,9.7816467288,0.0017795139,-0.0000434028,-0.1757378472
558960.1900241640,-0.0891113281,0.0057983398,9.7816467288,0.0008355035,-0.0000108507,-0.1754774305
558960.2000241640,-0.0875854492,0.0082397461,9.7816467288,0.0019205729,-0.0000217014,-0.1749782986
558960.2100241639,-0.0885009766,0.0009155273,9.7816467288,0.0008029514,-0.0000217014,-0.1744900174
558960.2200241640,-0.0880432129,0.0086975098,9.7819519046,0.0018771701,-0.0000325521,-0.1742296007
558960.2300241640,-0.0883483887,0.0025939941,9.7813415531,0.0009982639,-0.0000217014,-0.1741319444
558960.2400241640,-0.0875854492,0.0106811523,9.7816467288,0.0014865451,-0.0000217014,-0.1741210937
558960.2500241640,-0.0875854492,0.0015258789,9.7813415531,0.0013997396,-0.0000325521,-0.1742078993
558960.2600241640,-0.0874328613,0.0061035156,9.7817993167,0.0010525174,-0.0000217014,-0.1743055555
558960.2700241640,-0.0875854492,0.0073242188,9.7811889652,0.0018771701,-0.0000651042,-0.1743381076
558960.2800241640,-0.0875854492,0.0053405762,9.7814941409,0.0007595486,-0.0000217014,-0.1743272569
558960.2900241640,-0.0875854492,0.0085449219,9.7814941409,0.0019205729,-0.0000217014,-0.1742513021
558960.3000241640,-0.0878906250,-0.0001525879,9.7810363773,0.0008897569,-0.0000000000,-0.1742621528
558960.3100241640,-0.0885009766,0.0102233887,9.7807312015,0.0016710069,-0.0000434028,-0.1742947049
558960.3200241640,-0.0878906250,0.0036621094,9.7813415531,0.0011718750,-0.0000325521,-0.1742947049
558960.3300241641,-0.0866699219,0.0086975098,9.7817993167,0.0013020833,-0.0000325521,-0.1742730035
558960.3400241639,-0.0863647461,0.0019836426,9.7813415531,0.0016384549,-0.0000217014,-0.1742947049
558960.3500241640,-0.0883483887,0.0068664551,9.7811889652,0.0009657118,-0.0000217014,-0.1743381076
558960.3600241640,-0.0883483887,0.0086975098,9.7814941409,0.0018229167,-0.0000434028,-0.1743381076
558960.3700241640,-0.0880432129,0.0033569336,9.7817993167,0.0008029514,-0.0000434028,-0.1743381076
558960.3800241640,-0.0868225098,0.0068664551,9.7816467288,0.0018771701,-0.0000325521,-0.1743815104
558960.3900241640,-0.0874328613,0.0028991699,9.7810363773,0.0008680556,-0.0000325521,-0.1744032118
558960.4000241640,-0.0883483887,0.0112915039,9.7811889652,0.0018229167,-0.0000542535,-0.1743598090
558960.4100241640,-0.0871276855,0.0019836426,9.7814941409,0.0010525174,-0.0000000000,-0.1743598090
558960.4200241640,-0.0869750977,0.0074768066,9.7811889652,0.0014865451,-0.0000325521,-0.1743706597
558960.4300241640,-0.0866699219,0.0025939941,9.7819519046,0.0014865451,-0.0000325521,-0.1743815104
558960.4400241650,-0.0883483887,0.0090026855,9.7816467288,0.0009982639,-0.0000217014,-0.1743923611
558960.4500241650,-0.0883483887,0.0073242188,9.7807312015,0.0018337674,-0.0000651042,-0.1743815104
558960.4600241650,-0.0883483887,0.0021362305,9.7816467288,0.0007812500,-0.0000217014,-0.1743489583
558960.4700241650,-0.0874328613,0.0077819824,9.7816467288,0.0018988715,-0.0000542535,-0.1743706597
558960.4800241650,-0.0877380371,0.0030517578,9.7811889652,0.0009223090,-0.0000000000,-0.1743598090
558960.4900241650,-0.0886535645,0.0111389160,9.7813415531,0.0016710069,-0.0000434028,-0.1743923611
558960.5000241650,-0.0875854492,0.0004577637,9.7813415531,0.0011393229,-0.0000325521,-0.1744466146
558960.5100241650,-0.0881958008,0.0080871582,9.7814941409,0.0013780382,-0.0000325521,-0.1744357639
558960.5200241650,-0.0871276855,0.0042724609,9.7814941409,0.0014973958,-0.0000325521,-0.1744357639
558960.5300241651,-0.0874328613,0.0074768066,9.7813415531,0.0010199653,-0.0000000000,-0.1744140625
558960.5400241649,-0.0883483887,0.0050354004,9.7814941409,0.0018229167,-0.0000325521,-0.1744357639
558960.5500241650,-0.0877380371,0.0030517578,9.7817993167,0.0008355035,-0.0000434028,-0.1744357639
558960.5600241650,-0.0877380371,0.0096130371,9.7813415531,0.0019205729,-0.0000434028,-0.1744140625
558960.5700241650,-0.0883483887,0.0028991699,9.7816467288,0.0008246528,-0.0000000000,-0.1744140625
558960.5800241650,-0.0881958008,0.0088500977,9.7811889652,0.0017469618,-0.0000325521,-0.1743815104
558960.5900241650,-0.0881958008,0.0003051758,9.7814941409,0.0011067708,-0.0000434028,-0.1744032118
558960.6000241650,-0.0869750977,0.0102233887,9.7811889652,0.0013780382,-0.0000325521,-0.1744032118
558960.6100241650,-0.0872802734,0.0036621094,9.7816467288,0.0015842014,-0.0000434028,-0.1743489583
558960.6200241650,-0.0888061523,0.0064086914,9.7811889652,0.0009440104,-0.0000325521,-0.1744357639
558960.6300241650,-0.0891113281,0.0059509277,9.7813415531,0.0018880208,-0.0000434028,-0.1744466146
558960.6400241650,-0.0889587402,0.0032043457,9.7819519046,0.0007703993,-0.0000325521,-0.1745008680
558960.6500241651,-0.0874328613,0.0099182129,9.7814941409,0.0018771701,-0.0000542535,-0.1745008680
558960.6600241649,-0.0868225098,0.0006103516,9.7805786136,0.0009223090,-0.0000217014,-0.1744791667
558960.6700241650,-0.0883483887,0.0091552734,9.7813415531,0.0016601562,-0.0000434028,-0.1744574653
558960.6800241650,-0.0881958008,0.0018310547,9.7821044925,0.0012803819,-0.0000325521,-0.1744249132
558960.6900241650,-0.0878906250,0.0096130371,9.7816467288,0.0012803819,-0.0000325521,-0.1744140625
558960.7000241650,-0.0872802734,0.0041198730,9.7817993167,0.0016601562,-0.0000325521,-0.1744466146
558960.7100241650,-0.0885009766,0.0045776367,9.7816467288,0.0008029514,-0.0000325521,-0.1744683160
558960.7200241650,-0.0880432129,0.0067138672,9.7814941409,0.0019639757,-0.0000542535,-0.1744032118
558960.7300241650,-0.0885009766,0.0024414063,9.7816467288,0.0008029514,-0.0000542535,-0.1744900174
558960.7400241650,-0.0877380371,0.0108337402,9.7817993167,0.0018446181,-0.0000434028,-0.1744574653
558960.7500241650,-0.0872802734,0.0013732910,9.7813415531,0.0009982639,-0.0000217014,-0.1745117187
558960.7600241650,-0.0891113281,0.0090026855,9.7817993167,0.0015407986,-0.0000434028,-0.1744683160
558960.7700241650,-0.0878906250,0.0018310547,9.7817993167,0.0013780382,-0.0000434028,-0.1744466146
558960.7800241651,-0.0866699219,0.0083923340,9.7819519046,0.0011718750,-0.0000217014,-0.1744900174
558960.7900241649,-0.0878906250,0.0044250488,9.7810363773,0.0016384549,-0.0000217014,-0.1744574653
558960.8000241650,-0.0883483887,0.0044250488,9.7819519046,0.0009548611,-0.0000217014,-0.1744900174
558960.8100241650,-0.0886535645,0.0068664551,9.7811889652,0.0018446181,-0.0000759549,-0.1745117187
558960.8200241650,-0.0877380371,0.0039672852,9.7813415531,0.0008572049,-0.0000217014,-0.1745117187
558960.8300241650,-0.0872802734,0.0085449219,9.7814941409,0.0018663194,-0.0000434028,-0.1744791667
558960.8400241650,-0.0881958008,0.0018310547,9.7813415531,0.0009114583,-0.0000217014,-0.1743055555
558960.8500241650,-0.0874328613,0.0086975098,9.7808837894,0.0017035590,-0.0000434028,-0.1743055555
558960.8600241650,-0.0881958008,0.0021362305,9.7811889652,0.0011393229,-0.0000217014,-0.1744466146
558960.8700241650,-0.0875854492,0.0096130371,9.7821044925,0.0013997396,-0.0000542535,-0.1744900174
558960.8800241650,-0.0875854492,0.0012207031,9.7816467288,0.0015190972,-0.0000325521,-0.1744683160
558960.8900241650,-0.0871276855,0.0068664551,9.7814941409,0.0011067708,-0.0000217014,-0.1744574653
558960.9000241651,-0.0875854492,0.0067138672,9.7811889652,0.0017252604,-0.0000542535,-0.1744791667
558960.9100241649,-0.0872802734,0.0047302246,9.7817993167,0.0008355035,-0.0000325521,-0.1745008680
558960.9200241650,-0.0878906250,0.0073242188,9.7810363773,0.0019097222,-0.0000434028,-0.1745008680
558960.9300241650,-0.0866699219,0.0016784668,9.7810363773,0.0008463542,-0.0000325521,-0.1744574653
558960.9400241650,-0.0860595703,0.0109863281,9.7811889652,0.0018120660,-0.0000434028,-0.1745008680
558960.9500241650,-0.0886535645,0.0009155273,9.7814941409,0.0011067708,-0.0000325521,-0.1745334201
558960.9600241650,-0.0878906250,0.0074768066,9.7821044925,0.0013563368,-0.0000325521,-0.1745442708
558960.9700241650,-0.0868225098,0.0033569336,9.7814941409,0.0016384549,-0.0000325521,-0.1745225694
558960.9800241650,-0.0868225098,0.0071716309,9.7811889652,0.0008572049,-0.0000000000,-0.1745334201
558960.9900241650,-0.0894165039,0.0074768066,9.7813415531,0.0018880208,-0.0000651042,-0.1745117187
558961.0000241650,-0.0883483887,0.0012207031,9.7813415531,0.0008355035,-0.0000217014,-0.1744900174
558961.0100241650,-0.0874328613,0.0076293945,9.7811889652,0.0018988715,-0.0000434028,-0.1747287326
558961.0200241650,-0.0871276855,0.0028991699,9.7814941409,0.0009657118,-0.0000325521,-0.1744249132
558961.0300241651,-0.0874328613,0.0111389160,9.7814941409,0.0016059028,-0.0000434028,-0.1744683160
558961.0400241649,-0.0886535645,0.0001525879,9.7819519046,0.0012261285,-0.0000217014,-0.1745008680
558961.0500241650,-0.0875854492,0.0073242188,9.7819519046,0.0013237847,-0.0000434028,-0.1745008680
558961.0600241650,-0.0881958008,0.0047302246,9.7813415531,0.0016276042,-0.0000542535,-0.1745225694
558961.0700241650,-0.0878906250,0.0068664551,9.7822570804,0.0009114583,-0.0000325521,-0.1745225694
558961.0800241650,-0.0881958008,0.0051879883,9.7811889652,0.0019205729,-0.0000434028,-0.1745551215
558961.0900241650,-0.0881958008,0.0015258789,9.7813415531,0.0007812500,-0.0000000000,-0.1745985243
558961.1000241650,-0.0875854492,0.0108337402,9.7811889652,0.0019097222,-0.0000325521,-0.1745551215
558961.1100241650,-0.0865173340,0.0010681152,9.7813415531,0.0009223090,-0.0000325521,-0.1745117187
558961.1200241650,-0.0883483887,0.0091552734,9.7819519046,0.0015299479,-0.0000542535,-0.1745117187
558961.1300241650,-0.0898742676,0.0001525879,9.7817993167,0.0014105903,-0.0000542535,-0.1744900174
558961.1400241650,-0.0883483887,0.0080871582,9.7814941409,0.0011393229,-0.0000542535,-0.1744791667
558961.1500241651,-0.0868225098,0.0067138672,9.7816467288,0.0017578125,-0.0000325521,-0.1744249132
558961.1600241649,-0.0871276855,0.0038146973,9.7813415531,0.0008355035,-0.0000217014,-0.1744466146
558961.1700241650,-0.0883483887,0.0068664551,9.7810363773,0.0019205729,-0.0000542535,-0.1744574653
558961.1800241650,-0.0872802734,0.0024414063,9.7816467288,0.0008029514,-0.0000000000,-0.1745117187
558961.1900241650,-0.0877380371,0.0117492676,9.7816467288,0.0017795139,-0.0000651042,-0.1745117187
558961.2000241650,-0.0880432129,0.0004577637,9.7819519046,0.0010416667,-0.0000217014,-0.1745334201
558961.2100241650,-0.0878906250,0.0080871582,9.7813415531,0.0014648437,-0.0000434028,-0.1745442708
558961.2200241650,-0.0880432129,0.0021362305,9.7811889652,0.0015516493,-0.0000542535,-0.1745768229
558961.2300241650,-0.0886535645,0.0076293945,9.7819519046,0.0009982639,-0.0000217014,-0.1745659722
558961.2400241650,-0.0883483887,0.0071716309,9.7816467288,0.0018663194,-0.0000434028,-0.1745442708
558961.2500241650,-0.0875854492,0.0012207031,9.7807312015,0.0007052951,-0.0000000000,-0.1745876736
558961.2600241650,-0.0868225098,0.0086975098,9.7811889652,0.0019531250,-0.0000651042,-0.1745551215
558961.2700241650,-0.0880432129,0.0010681152,9.7810363773,0.0009548611,-0.0000325521,-0.1744900174
558961.2800241651,-0.0883483887,0.0108337402,9.7814941409,0.0015733507,-0.0000434028,-0.1745225694
558961.2900241649,-0.0886535645,0.0006103516,9.7814941409,0.0013237847,-0.0000217014,-0.1745008680
558961.3000241650,-0.0881958008,0.0057983398,9.7816467288,0.0012044271,-0.0000542535,-0.1744900174
558961.3100241650,-0.0871276855,0.0048828125,9.7808837894,0.0016927083,-0.0000651042,-0.1745225694
558961.3200241650,-0.0885009766,0.0067138672,9.7819519046,0.0008680556,-0.0000000000,-0.1745551215
558961.3300241650,-0.0875854492,0.0064086914,9.7816467288,0.0018771701,-0.0000759549,-0.1745876736
558961.3400241650,-0.0880432129,0.0006103516,9.7816467288,0.0008355035,-0.0000000000,-0.1745876736
558961.3500241650,-0.0872802734,0.0096130371,9.7813415531,0.0018988715,-0.0000651042,-0.1745442708
558961.3600241650,-0.0881958008,0.0021362305,9.7810363773,0.0009440104,-0.0000325521,-0.1745334201
558961.3700241650,-0.0883483887,0.0090026855,9.7814941409,0.0015625000,-0.0000325521,-0.1745117187
558961.3800241650,-0.0874328613,0.0001525879,9.7814941409,0.0013020833,-0.0000434028,-0.1745225694
558961.3900241650,-0.0877380371,0.0090026855,9.7811889652,0.0012261285,-0.0000542535,-0.1745659722
558961.4000241651,-0.0894165039,0.0061035156,9.7813415531,0.0016927083,-0.0000434028,-0.1745225694
558961.4100241649,-0.0872802734,0.0041198730,9.7819519046,0.0008680556,-0.0000325521,-0.1744791667
558961.4200241650,-0.0885009766,0.0054931641,9.7811889652,0.0019314236,-0.0000542535,-0.1744466146
558961.4300241650,-0.0881958008,0.0019836426,9.7814941409,0.0008246528,-0.0000325521,-0.1744140625
558961.4400241650,-0.0875854492,0.0109863281,9.7813415531,0.0018229167,-0.0000542535,-0.1745008680
558961.4500241650,-0.0883483887,0.0009155273,9.7814941409,0.0009548611,-0.0000434028,-0.1744900174
558961.4600241650,-0.0888061523,0.0083923340,9.7813415531,0.0014973958,-0.0000434028,-0.1744574653
558961.4700241650,-0.0881958008,0.0019836426,9.7814941409,0.0015625000,-0.0000542535,-0.1745117187
558961.4800241650,-0.0874328613,0.0080871582,9.7811889652,0.0009765625,-0.0000217014,-0.1745442708
558961.4900241650,-0.0863647461,0.0067138672,9.7819519046,0.0018988715,-0.0000651042,-0.1745876736
558961.5000241650,-0.0886535645,0.0004577637,9.7808837894,0.0007378472,-0.0000217014,-0.1746202257
558961.5100241660,-0.0885009766,0.0085449219,9.7805786136,0.0019205729,-0.0000434028,-0.1745876736
558961.5200241660,-0.0871276855,0.0025939941,9.7814941409,0.0009548611,-0.0000434028,-0.1746310764
558961.5300241660,-0.0875854492,0.0097656250,9.7807312015,0.0015516493,-0.0000542535,-0.1745985243
558961.5400241660,-0.0894165039,0.0010681152,9.7808837894,0.0013563368,-0.0000325521,-0.1745551215
558961.5500241660,-0.0883483887,0.0073242188,9.7819519046,0.0012044271,-0.0000434028,-0.1745225694
558961.5600241660,-0.0871276855,0.0056457520,9.7813415531,0.0017252604,-0.0000542535,-0.1745225694
558961.5700241660,-0.0875854492,0.0047302246,9.7811889652,0.0008246528,-0.0000434028,-0.1744900174
558961.5800241660,-0.0888061523,0.0067138672,9.7819519046,0.0019639757,-0.0000976562,-0.1745117187
558961.5900241660,-0.0885009766,0.0012207031,9.7817993167,0.0007703993,-0.0000000000,-0.1744791667
558961.6000241661,-0.0874328613,0.0112915039,9.7819519046,0.0018446181,-0.0000434028,-0.1745442708
558961.6100241659,-0.0881958008,0.0012207031,9.7808837894,0.0010525174,-0.0000542535,-0.1745442708
558961.6200241660,-0.0875854492,0.0073242188,9.7814941409,0.0014105903,-0.0000542535,-0.1745442708
558961.6300241660,-0.0874328613,0.0019836426,9.7811889652,0.0015842014,-0.0000651042,-0.1745768229
558961.6400241660,-0.0874328613,0.0074768066,9.7817993167,0.0009548611,-0.0000217014,-0.1745659722
558961.6500241660,-0.0888061523,0.0074768066,9.7813415531,0.0018663194,-0.0000542535,-0.1745659722
558961.6600241660,-0.0894165039,0.0015258789,9.7810363773,0.0007486979,-0.0000542535,-0.1745876736
558961.6700241660,-0.0868225098,0.0076293945,9.7819519046,0.0019314236,-0.0000542535,-0.1745442708
558961.6800241660,-0.0883483887,0.0015258789,9.7811889652,0.0009548611,-0.0000434028,-0.1745442708
558961.6900241660,-0.0881958008,0.0109863281,9.7814941409,0.0016276042,-0.0000542535,-0.1745008680
558961.7000241660,-0.0880432129,0.0006103516,9.7814941409,0.0013020833,-0.0000434028,-0.1745117187
558961.7100241660,-0.0883483887,0.0070190430,9.7814941409,0.0011718750,-0.0000542535,-0.1745117187
558961.7200241660,-0.0871276855,0.0038146973,9.7816467288,0.0017252604,-0.0000759549,-0.1745008680
558961.7300241661,-0.0880432129,0.0061035156,9.7814941409,0.0008680556,-0.0000000000,-0.1745117187
558961.7400241659,-0.0878906250,0.0079345703,9.7810363773,0.0019639757,-0.0000542535,-0.1745442708
558961.7500241660,-0.0889587402,0.0004577637,9.7811889652,0.0008029514,-0.0000542535,-0.1745551215
558961.7600241660,-0.0880432129,0.0094604492,9.7811889652,0.0018229167,-0.0000542535,-0.1746202257
558961.7700241660,-0.0868225098,0.0009155273,9.7816467288,0.0010308160,-0.0000434028,-0.1746202257
558961.7800241660,-0.0881958008,0.0094604492,9.7817993167,0.0014431424,-0.0000434028,-0.1745876736
558961.7900241660,-0.0886535645,0.0015258789,9.7811889652,0.0014973958,-0.0000434028,-0.1745442708
558961.8000241660,-0.0881958008,0.0062561035,9.7813415531,0.0009982639,-0.0000434028,-0.1745768229
558961.8100241660,-0.0877380371,0.0061035156,9.7814941409,0.0019531250,-0.0000651042,-0.1745551215
558961.8200241660,-0.0886535645,0.0028991699,9.7814941409,0.0007161458,-0.0000000000,-0.1745551215
558961.8300241660,-0.0883483887,0.0091552734,9.7816467288,0.0018988715,-0.0000651042,-0.1744683160
558961.8400241660,-0.0883483887,-0.0004577637,9.7813415531,0.0009548611,-0.0000542535,-0.1745442708
558961.8500241661,-0.0868225098,0.0102233887,9.7813415531,0.0015516493,-0.0000542535,-0.1745551215
558961.8600241659,-0.0866699219,0.0021362305,9.7814941409,0.0014105903,-0.0000434028,-0.1745117187
558961.8700241660,-0.0886535645,0.0064086914,9.7817993167,0.0011284722,-0.0000434028,-0.1745442708
558961.8800241660,-0.0885009766,0.0047302246,9.7817993167,0.0018012153,-0.0000542535,-0.1745442708
558961.8900241660,-0.0875854492,0.0038146973,9.7817993167,0.0008463542,-0.0000542535,-0.1745551215
558961.9000241660,-0.0878906250,0.0079345703,9.7808837894,0.0019097222,-0.0000542535,-0.1743489583
558961.9100241660,-0.0883483887,0.0006103516,9.7819519046,0.0008355035,-0.0000217014,-0.1744357639
558961.9200241660,-0.0886535645,0.0094604492,9.7811889652,0.0017795139,-0.0000759549,-0.1745551215
558961.9300241660,-0.0877380371,0.0015258789,9.7813415531,0.0011176215,-0.0000542535,-0.1746093750
558961.9400241660,-0.0872802734,0.0086975098,9.7811889652,0.0014756944,-0.0000542535,-0.1746202257
558961.9500241660,-0.0875854492,0.0021362305,9.7816467288,0.0014756944,-0.0000434028,-0.1746202257
558961.9600241660,-0.0888061523,0.0067138672,9.7817993167,0.0010633681,-0.0000325521,-0.1745985243
558961.9700241660,-0.0886535645,0.0050354004,9.7810363773,0.0017795139,-0.0000651042,-0.1745442708
558961.9800241661,-0.0869750977,0.0033569336,9.7814941409,0.0007921007,-0.0000434028,-0.1745334201
558961.9900241659,-0.0878906250,0.0070190430,9.7816467288,0.0019639757,-0.0000651042,-0.1744683160
558962.0000241660,-0.0894165039,0.0004577637,9.7816467288,0.0008355035,-0.0000217014,-0.1745008680
558962.0100241660,-0.0883483887,0.0111389160,9.7813415531,0.0018012153,-0.0000759549,-0.1747829861
558962.0200241660,-0.0875854492,0.0012207031,9.7814941409,0.0011284722,-0.0000325521,-0.1745334201
558962.0300241660,-0.0885009766,0.0073242188,9.7814941409,0.0013563368,-0.0000542535,-0.1745551215
558962.0400241660,-0.0888061523,0.0025939941,9.7814941409,0.0015516493,-0.0000651042,-0.1745551215
558962.0500241660,-0.0877380371,0.0071716309,9.7814941409,0.0010091146,-0.0000217014,-0.1745659722
558962.0600241660,-0.0874328613,0.0061035156,9.7813415531,0.0017903646,-0.0000542535,-0.1745659722
558962.0700241660,-0.0880432129,0.0021362305,9.7816467288,0.0008572049,-0.0000542535,-0.1745659722
558962.0800241660,-0.0883483887,0.0076293945,9.7811889652,0.0019748264,-0.0000759549,-0.1746202257
558962.0900241660,-0.0891113281,0.0016784668,9.7807312015,0.0008355035,-0.0000217014,-0.1745659722
558962.1000241661,-0.0869750977,0.0093078613,9.7810363773,0.0017469618,-0.0000325521,-0.1745876736
558962.1100241659,-0.0881958008,0.0001525879,9.7810363773,0.0011284722,-0.0000542535,-0.1745876736
558962.1200241660,-0.0894165039,0.0079345703,9.7816467288,0.0013671875,-0.0000542535,-0.1745768229
558962.1300241660,-0.0889587402,0.0032043457,9.7814941409,0.0015733507,-0.0000542535,-0.1745117187
558962.1400241660,-0.0883483887,0.0062561035,9.7813415531,0.0009765625,-0.0000434028,-0.1744791667
558962.1500241660,-0.0874328613,0.0047302246,9.7810363773,0.0018771701,-0.0000325521,-0.1744683160
558962.1600241660,-0.0877380371,0.0016784668,9.7814941409,0.0007703993,-0.0000542535,-0.1745225694
558962.1700241660,-0.0885009766,0.0094604492,9.7813415531,0.0019205729,-0.0000759549,-0.1745008680
558962.1800241660,-0.0875854492,0.0004577637,9.7811889652,0.0009114583,-0.0000325521,-0.1745659722
558962.1900241660,-0.0871276855,0.0093078613,9.7811889652,0.0016167535,-0.0000542535,-0.1745334201
558962.2000241660,-0.0883483887,0.0004577637,9.7816467288,0.0013237847,-0.0000542535,-0.1745442708
558962.2100241660,-0.0892639160,0.0077819824,9.7816467288,0.0012152778,-0.0000542535,-0.1745008680
558962.2200241660,-0.0875854492,0.0045776367,9.7816467288,0.0017252604,-0.0000651042,-0.1745551215
558962.2300241661,-0.0866699219,0.0048828125,9.7816467288,0.0008572049,-0.0000000000,-0.1745225694
558962.2400241659,-0.0881958008,0.0059509277,9.7810363773,0.0018988715,-0.0000542535,-0.1745334201
558962.2500241660,-0.0881958008,0.0012207031,9.7813415531,0.0007812500,-0.0000434028,-0.1745117187
558962.2600241660,-0.0877380371,0.0094604492,9.7817993167,0.0018446181,-0.0000651042,-0.1745551215
558962.2700241660,-0.0872802734,0.0001525879,9.7813415531,0.0010199653,-0.0000434028,-0.1745225694
558962.2800241660,-0.0881958008,0.0079345703,9.7814941409,0.0015516493,-0.0000434028,-0.1745442708
558962.2900241660,-0.0897216797,0.0019836426,9.7813415531,0.0013563368,-0.0000651042,-0.1745768229
558962.3000241660,-0.0897216797,0.0080871582,9.7811889652,0.0012044271,-0.0000542535,-0.1745442708
558962.3100241660,-0.0874328613,0.0041198730,9.7813415531,0.0016601562,-0.0000759549,-0.1745334201
558962.3200241660,-0.0874328613,0.0039672852,9.7811889652,0.0008572049,-0.0000217014,-0.1745551215
558962.3300241660,-0.0880432129,0.0067138672,9.7814941409,0.0019639757,-0.0000651042,-0.1745334201
558962.3400241660,-0.0894165039,0.0009155273,9.7817993167,0.0008029514,-0.0000434028,-0.1745876736
558962.3500241661,-0.0875854492,0.0094604492,9.7813415531,0.0018446181,-0.0000542535,-0.1745985243
558962.3600241659,-0.0852966309,0.0003051758,9.7814941409,0.0010091146,-0.0000325521,-0.1745985243
558962.3700241660,-0.0883483887,0.0096130371,9.7816467288,0.0015299479,-0.0000542535,-0.1745551215
558962.3800241660,-0.0897216797,0.0004577637,9.7817993167,0.0013997396,-0.0000651042,-0.1745985243
558962.3900241660,-0.0889587402,0.0067138672,9.7816467288,0.0010959201,-0.0000434028,-0.1745659722
558962.4000241660,-0.0865173340,0.0039672852,9.7819519046,0.0018120660,-0.0000542535,-0.1744791667
558962.4100241660,-0.0871276855,0.0036621094,9.7813415531,0.0008572049,-0.0000217014,-0.1744357639
558962.4200241660,-0.0901794434,0.0073242188,9.7813415531,0.0019205729,-0.0000542535,-0.1745117187
558962.4300241660,-0.0891113281,0.0009155273,9.7816467288,0.0008246528,-0.0000434028,-0.1745117187
558962.4400241660,-0.0865173340,0.0090026855,9.7811889652,0.0018012153,-0.0000651042,-0.1745442708
558962.4500241660,-0.0868225098,0.0009155273,9.7814941409,0.0010308160,-0.0000325521,-0.1745659722
558962.4600241660,-0.0892639160,0.0091552734,9.7813415531,0.0015299479,-0.0000651042,-0.1746093750
558962.4700241660,-0.0883483887,0.0006103516,9.7817993167,0.0013780382,-0.0000651042,-0.1745768229
558962.4800241661,-0.0868225098,0.0073242188,9.7814941409,0.0011827257,-0.0000325521,-0.1745442708
558962.4900241659,-0.0872802734,0.0035095215,9.7810363773,0.0017469618,-0.0000542535,-0.1744791667
558962.5000241660,-0.0885009766,0.0033569336,9.7813415531,0.0008572049,-0.0000217014,-0.1745876736
558962.5100241660,-0.0883483887,0.0073242188,9.7811889652,0.0019531250,-0.0000651042,-0.1745659722
558962.5200241660,-0.0872802734,0.0012207031,9.7817993167,0.0007921007,-0.0000325521,-0.1745985243
558962.5300241660,-0.0869750977,0.0082397461,9.7819519046,0.0018120660,-0.0000759549,-0.1745551215
558962.5400241660,-0.0885009766,-0.0001525879,9.7816467288,0.0010850694,-0.0000000000,-0.1745225694
558962.5500241660,-0.0881958008,0.0088500977,9.7816467288,0.0015190972,-0.0000651042,-0.1745334201
558962.5600241660,-0.0881958008,0.0022888184,9.7816467288,0.0013888889,-0.0000542535,-0.1745768229
558962.5700241660,-0.0880432129,0.0067138672,9.7817993167,0.0011393229,-0.0000434028,-0.1745768229
558962.5800241660,-0.0880432129,0.0033569336,9.7816467288,0.0017361111,-0.0000542535,-0.1745442708
558962.5900241670,-0.0897216797,0.0045776367,9.7811889652,0.0008789062,-0.0000434028,-0.1745985243
558962.6000241670,-0.0886535645,0.0064086914,9.7813415531,0.0019097222,-0.0000651042,-0.1745551215
558962.6100241670,-0.0880432129,0.0003051758,9.7817993167,0.0008246528,-0.0000542535,-0.1745768229
558962.6200241670,-0.0866699219,0.0094604492,9.7811889652,0.0018988715,-0.0000325521,-0.1745659722
558962.6300241670,-0.0880432129,0.0001525879,9.7816467288,0.0009548611,-0.0000325521,-0.1746202257
558962.6400241670,-0.0888061523,0.0091552734,9.7816467288,0.0015190972,-0.0000759549,-0.1746093750
558962.6500241670,-0.0868225098,0.0013732910,9.7816467288,0.0013888889,-0.0000651042,-0.1746093750
558962.6600241670,-0.0878906250,0.0068664551,9.7816467288,0.0011718750,-0.0000325521,-0.1745334201
558962.6700241670,-0.0883483887,0.0045776367,9.7813415531,0.0017361111,-0.0000868056,-0.1745225694
558962.6800241671,-0.0894165039,0.0028991699,9.7811889652,0.0009114583,-0.0000217014,-0.1745117187
558962.6900241670,-0.0878906250,0.0067138672,9.7811889652,0.0019314236,-0.0000651042,-0.1745008680
558962.7000241670,-0.0877380371,0.0015258789,9.7811889652,0.0007595486,-0.0000434028,-0.1745117187
558962.7100241670,-0.0875854492,0.0088500977,9.7814941409,0.0018446181,-0.0000542535,-0.1745117187
558962.7200241670,-0.0885009766,-0.0003051758,9.7816467288,0.0010091146,-0.0000325521,-0.1745334201
558962.7300241670,-0.0875854492,0.0090026855,9.7810363773,0.0015299479,-0.0000542535,-0.1745442708
558962.7400241670,-0.0878906250,0.0018310547,9.7808837894,0.0014648437,-0.0000759549,-0.1745334201
558962.7500241670,-0.0869750977,0.0064086914,9.7819519046,0.0010416667,-0.0000542535,-0.1745985243
558962.7600241670,-0.0880432129,0.0038146973,9.7816467288,0.0018446181,-0.0000542535,-0.1745876736
558962.7700241670,-0.0888061523,0.0021362305,9.7811889652,0.0007812500,-0.0000325521,-0.1745334201
558962.7800241670,-0.0875854492,0.0077819824,9.7811889652,0.0019205729,-0.0000759549,-0.1745442708
558962.7900241670,-0.0880432129,0.0013732910,9.7811889652,0.0008680556,-0.0000434028,-0.1745876736
558962.8000241671,-0.0885009766,0.0085449219,9.7819519046,0.0017578125,-0.0000759549,-0.1745659722
558962.8100241669,-0.0888061523,-0.0000000000,9.7810363773,0.0011176215,-0.0000325521,-0.1745659722
558962.8200241670,-0.0874328613,0.0080871582,9.7814941409,0.0014756944,-0.0000325521,-0.1744900174
558962.8300241670,-0.0872802734,0.0015258789,9.7808837894,0.0013997396,-0.0000759549,-0.1745768229
558962.8400241670,-0.0883483887,0.0067138672,9.7811889652,0.0011284722,-0.0000217014,-0.1745659722
558962.8500241670,-0.0885009766,0.0032043457,9.7811889652,0.0017361111,-0.0000651042,-0.1745117187
558962.8600241670,-0.0877380371,0.0042724609,9.7810363773,0.0008572049,-0.0000542535,-0.1745117187
558962.8700241670,-0.0874328613,0.0076293945,9.7813415531,0.0019639757,-0.0000759549,-0.1745117187
558962.8800241670,-0.0875854492,0.0007629395,9.7816467288,0.0008355035,-0.0000434028,-0.1745659722
558962.8900241670,-0.0891113281,0.0091552734,9.7817993167,0.0017903646,-0.0000759549,-0.1745442708
558962.9000241670,-0.0880432129,0.0004577637,9.7819519046,0.0010633681,-0.0000217014,-0.1745117187
558962.9100241670,-0.0877380371,0.0080871582,9.7811889652,0.0014431424,-0.0000542535,-0.1745334201
558962.9200241670,-0.0868225098,0.0015258789,9.7810363773,0.0014431424,-0.0000651042,-0.1745442708
558962.9300241671,-0.0881958008,0.0068664551,9.7817993167,0.0011176215,-0.0000325521,-0.1745659722
558962.9400241670,-0.0881958008,0.0050354004,9.7816467288,0.0017578125,-0.0000651042,-0.1745225694
558962.9500241670,-0.0886535645,0.0012207031,9.7814941409,0.0009223090,-0.0000434028,-0.1744900174
558962.9600241670,-0.0863647461,0.0061035156,9.7810363773,0.0018446181,-0.0000651042,-0.1745225694
558962.9700241670,-0.0880432129,0.0022888184,9.7817993167,0.0008572049,-0.0000759549,-0.1745768229
558962.9800241670,-0.0888061523,0.0086975098,9.7816467288,0.0018337674,-0.0000651042,-0.1745117187
558962.9900241670,-0.0886535645,-0.0004577637,9.7811889652,0.0009657118,-0.0000434028,-0.1745225694
558963.0000241670,-0.0871276855,0.0074768066,9.7814941409,0.0016493056,-0.0000651042,-0.1745334201
558963.0100241670,-0.0869750977,0.0021362305,9.7807312015,0.0013020833,-0.0000651042,-0.1748697917
558963.0200241670,-0.0885009766,0.0076293945,9.7814941409,0.0012912326,-0.0000434028,-0.1745551215
558963.0300241670,-0.0886535645,0.0024414063,9.7813415531,0.0016276042,-0.0000651042,-0.1745334201
558963.0400241670,-0.0866699219,0.0033569336,9.7819519046,0.0009331597,-0.0000217014,-0.1745334201
558963.0500241671,-0.0874328613,0.0064086914,9.7808837894,0.0018337674,-0.0000868056,-0.1745334201
558963.0600241669,-0.0888061523,0.0035095215,9.7813415531,0.0008572049,-0.0000434028,-0.1745768229
558963.0700241670,-0.0894165039,0.0076293945,9.7814941409,0.0018880208,-0.0000651042,-0.1745876736
558963.0800241670,-0.0880432129,0.0001525879,9.7816467288,0.0008897569,-0.0000542535,-0.1745117187
558963.0900241670,-0.0874328613,0.0083923340,9.7816467288,0.0017469618,-0.0000434028,-0.1745225694
558963.1000241670,-0.0872802734,0.0006103516,9.7811889652,0.0011718750,-0.0000325521,-0.1745334201
558963.1100241670,-0.0886535645,0.0086975098,9.7817993167,0.0012912326,-0.0000759549,-0.1745225694
558963.1200241670,-0.0880432129,0.0015258789,9.7817993167,0.0016167535,-0.0000434028,-0.1745442708
558963.1300241670,-0.0880432129,0.0045776367,9.7810363773,0.0009548611,-0.0000542535,-0.1745225694
558963.1400241670,-0.0875854492,0.0064086914,9.7810363773,0.0019205729,-0.0000759549,-0.1745117187
558963.1500241670,-0.0877380371,0.0021362305,9.7810363773,0.0007921007,-0.0000434028,-0.1745334201
558963.1600241670,-0.0880432129,0.0068664551,9.7819519046,0.0019097222,-0.0000651042,-0.1745225694
558963.1700241670,-0.0880432129,-0.0000000000,9.7811889652,0.0009223090,-0.0000325521,-0.1745334201
558963.1800241671,-0.0869750977,0.0097656250,9.7811889652,0.0016710069,-0.0000434028,-0.1745334201
558963.1900241670,-0.0898742676,0.0010681152,9.7814941409,0.0012261285,-0.0000651042,-0.1745442708
558963.2000241670,-0.0872802734,0.0071716309,9.7819519046,0.0013129340,-0.0000651042,-0.1745876736
558963.2100241670,-0.0868225098,0.0022888184,9.7817993167,0.0016493056,-0.0000542535,-0.1745876736
558963.2200241670,-0.0871276855,0.0045776367,9.7813415531,0.0009440104,-0.0000217014,-0.1745225694
558963.2300241670,-0.0885009766,0.0056457520,9.7813415531,0.0018880208,-0.0000651042,-0.1745551215
558963.2400241670,-0.0883483887,0.0018310547,9.7814941409,0.0007703993,-0.0000651042,-0.1745008680
558963.2500241670,-0.0871276855,0.0073242188,9.7811889652,0.0019097222,-0.0000759549,-0.1744791667
558963.2600241670,-0.0871276855,-0.0000000000,9.7816467288,0.0009331597,-0.0000000000,-0.1744574653
558963.2700241670,-0.0888061523,0.0094604492,9.7811889652,0.0016927083,-0.0000868056,-0.1744683160
558963.2800241670,-0.0888061523,0.0012207031,9.7819519046,0.0012369792,-0.0000759549,-0.1745225694
558963.2900241670,-0.0869750977,0.0067138672,9.7816467288,0.0013020833,-0.0000542535,-0.1745876736
558963.3000241671,-0.0877380371,0.0016784668,9.7814941409,0.0016059028,-0.0000651042,-0.1745442708
558963.3100241669,-0.0875854492,0.0050354004,9.7814941409,0.0009765625,-0.0000217014,-0.1745659722
558963.3200241670,-0.0883483887,0.0057983398,9.7808837894,0.0018446181,-0.0000651042,-0.1745442708
558963.3300241670,-0.0883483887,0.0015258789,9.7817993167,0.0008355035,-0.0000868056,-0.1745985243
558963.3400241670,-0.0852966309,0.0085449219,9.7808837894,0.0019314236,-0.0000651042,-0.1745985243
558963.3500241670,-0.0888061523,-0.0003051758,9.7817993167,0.0009223090,-0.0000000000,-0.1745876736
558963.3600241670,-0.0901794434,0.0085449219,9.7816467288,0.0016493056,-0.0000651042,-0.1745876736
558963.3700241670,-0.0883483887,-0.0000000000,9.7813415531,0.0012695312,-0.0000868056,-0.1745876736
558963.3800241670,-0.0866699219,0.0079345703,9.7807312015,0.0012044271,-0.0000542535,-0.1745442708
558963.3900241670,-0.0871276855,0.0032043457,9.7813415531,0.0017035590,-0.0000651042,-0.1745117187
558963.4000241670,-0.0892639160,0.0027465820,9.7816467288,0.0009223090,-0.0000325521,-0.1744900174
558963.4100241670,-0.0904846191,0.0059509277,9.7811889652,0.0019097222,-0.0001193576,-0.1744791667
558963.4200241670,-0.0871276855,0.0022888184,9.7808837894,0.0008246528,-0.0000651042,-0.1745225694
558963.4300241671,-0.0866699219,0.0088500977,9.7813415531,0.0018988715,-0.0000542535,-0.1745442708
558963.4400241670,-0.0891113281,-0.0010681152,9.7817993167,0.0009331597,-0.0000325521,-0.1745442708
558963.4500241670,-0.0892639160,0.0088500977,9.7819519046,0.0015842014,-0.0000651042,-0.1745442708
558963.4600241670,-0.0878906250,0.0012207031,9.7814941409,0.0013888889,-0.0000868056,-0.1745768229
558963.4700241670,-0.0872802734,0.0062561035,9.7808837894,0.0011718750,-0.0000651042,-0.1745768229
558963.4800241670,-0.0874328613,0.0032043457,9.7816467288,0.0017578125,-0.0000217014,-0.1745442708
558963.4900241670,-0.0900268555,0.0032043457,9.7813415531,0.0008463542,-0.0000434028,-0.1745876736
558963.5000241670,-0.0891113281,0.0070190430,9.7807312015,0.0019205729,-0.0000868056,-0.1745876736
558963.5100241670,-0.0866699219,0.0009155273,9.7819519046,0.0008246528,-0.0000325521,-0.1745768229
558963.5200241670,-0.0872802734,0.0083923340,9.7816467288,0.0018446181,-0.0000434028,-0.1745225694
558963.5300241670,-0.0883483887,-0.0004577637,9.7814941409,0.0010308160,-0.0000434028,-0.1745008680
558963.5400241670,-0.0888061523,0.0085449219,9.7813415531,0.0015842014,-0.0000651042,-0.1745117187
558963.5500241671,-0.0871276855,0.0009155273,9.7816467288,0.0013671875,-0.0000868056,-0.1745117187
558963.5600241669,-0.0874328613,0.0074768066,9.7819519046,0.0012586806,-0.0000434028,-0.1745117187
558963.5700241670,-0.0892639160,0.0022888184,9.7816467288,0.0016059028,-0.0000759549,-0.1745225694
558963.5800241670,-0.0889587402,0.0042724609,9.7810363773,0.0009548611,-0.0000325521,-0.1745442708
558963.5900241670,-0.0865173340,0.0054931641,9.7810363773,0.0018988715,-0.0000868056,-0.1745876736
558963.6000241670,-0.0872802734,0.0010681152,9.7816467288,0.0007921007,-0.0000434028,-0.1745876736
558963.6100241670,-0.0889587402,0.0080871582,9.7811889652,0.0019205729,-0.0000868056,-0.1745551215
558963.6200241670,-0.0894165039,-0.0004577637,9.7810363773,0.0009548611,-0.0000325521,-0.1745876736
558963.6300241670,-0.0871276855,0.0086975098,9.7808837894,0.0015842014,-0.0000542535,-0.1745768229
558963.6400241670,-0.0862121582,0.0001525879,9.7813415531,0.0013237847,-0.0000651042,-0.1745442708
558963.6500241670,-0.0881958008,0.0062561035,9.7810363773,0.0011718750,-0.0000434028,-0.1745768229
558963.6600241680,-0.0888061523,0.0028991699,9.7813415531,0.0017578125,-0.0000759549,-0.1745225694
558963.6700241680,-0.0881958008,0.0033569336,9.7816467288,0.0008680556,-0.0000542535,-0.1745551215
558963.6800241680,-0.0874328613,0.0065612793,9.7813415531,0.0019531250,-0.0000651042,-0.1745334201
558963.6900241680,-0.0878906250,0.0004577637,9.7819519046,0.0007921007,-0.0000651042,-0.1745551215
558963.7000241680,-0.0881958008,0.0080871582,9.7813415531,0.0018663194,-0.0000434028,-0.1745551215
558963.7100241680,-0.0880432129,0.0003051758,9.7821044925,0.0009765625,-0.0000434028,-0.1745876736
558963.7200241680,-0.0877380371,0.0077819824,9.7814941409,0.0015625000,-0.0000759549,-0.1745334201
558963.7300241680,-0.0872802734,0.0003051758,9.7816467288,0.0013237847,-0.0000759549,-0.1746093750
558963.7400241680,-0.0888061523,0.0074768066,9.7808837894,0.0012912326,-0.0000434028,-0.1745876736
558963.7500241681,-0.0895690918,0.0024414063,9.7813415531,0.0016710069,-0.0000868056,-0.1745659722
558963.7600241679,-0.0862121582,0.0038146973,9.7814941409,0.0009440104,-0.0000000000,-0.1745117187
558963.7700241680,-0.0871276855,0.0053405762,9.7811889652,0.0019205729,-0.0000542535,-0.1745117187
558963.7800241680,-0.0885009766,0.0016784668,9.7813415531,0.0007812500,-0.0000651042,-0.1745008680
558963.7900241680,-0.0892639160,0.0077819824,9.7813415531,0.0019097222,-0.0000759549,-0.1745117187
558963.8000241680,-0.0877380371,-0.0007629395,9.7817993167,0.0009982639,-0.0000542535,-0.1744574653
558963.8100241680,-0.0875854492,0.0077819824,9.7816467288,0.0016276042,-0.0000759549,-0.1745117187
558963.8200241680,-0.0881958008,0.0006103516,9.7810363773,0.0013237847,-0.0000651042,-0.1745117187
558963.8300241680,-0.0889587402,0.0057983398,9.7819519046,0.0012261285,-0.0000651042,-0.1745008680
558963.8400241680,-0.0885009766,0.0022888184,9.7808837894,0.0017144097,-0.0000868056,-0.1745008680
558963.8500241680,-0.0866699219,0.0035095215,9.7814941409,0.0008897569,-0.0000542535,-0.1745334201
558963.8600241680,-0.0874328613,0.0062561035,9.7814941409,0.0018988715,-0.0000542535,-0.1745551215
558963.8700241680,-0.0878906250,0.0016784668,9.7817993167,0.0008789062,-0.0000651042,-0.1745768229
558963.8800241679,-0.0885009766,0.0067138672,9.7816467288,0.0018663194,-0.0000759549,-0.1745225694
558963.8900241680,-0.0869750977,0.0006103516,9.7814941409,0.0009331597,-0.0000325521,-0.1746093750
558963.9000241680,-0.0874328613,0.0090026855,9.7813415531,0.0017361111,-0.0000542535,-0.1745876736
558963.9100241680,-0.0881958008,-0.0000000000,9.7813415531,0.0011284722,-0.0000759549,-0.1745985243
558963.9200241680,-0.0886535645,0.0077819824,9.7811889652,0.0013780382,-0.0000651042,-0.1745768229
558963.9300241680,-0.0886535645,0.0003051758,9.7811889652,0.0015407986,-0.0000759549,-0.1745225694
558963.9400241680,-0.0872802734,0.0054931641,9.7814941409,0.0010850694,-0.0000325521,-0.1745117187
558963.9500241680,-0.0878906250,0.0041198730,9.7817993167,0.0018446181,-0.0000759549,-0.1745117187
558963.9600241680,-0.0886535645,0.0021362305,9.7814941409,0.0007812500,-0.0000325521,-0.1744791667
558963.9700241680,-0.0880432129,0.0070190430,9.7817993167,0.0019639757,-0.0001302083,-0.1745225694
558963.9800241680,-0.0877380371,0.0001525879,9.7811889652,0.0008572049,-0.0000325521,-0.1745551215
558963.9900241680,-0.0874328613,0.0090026855,9.7814941409,0.0017252604,-0.0000651042,-0.1745442708
558964.0000241681,-0.0880432129,-0.0001525879,9.7811889652,0.0012152778,-0.0000759549,-0.1745985243
558964.0100241679,-0.0880432129,0.0074768066,9.7817993167,0.0013454861,-0.0000542535,-0.1748589410
558964.0200241680,-0.0880432129,0.0019836426,9.7816467288,0.0016927083,-0.0000651042,-0.1745551215
558964.0300241680,-0.0878906250,0.0051879883,9.7819519046,0.0008680556,-0.0000434028,-0.1745768229
558964.0400241680,-0.0889587402,0.0062561035,9.7816467288,0.0019205729,-0.0000759549,-0.1745659722
558964.0500241680,-0.0892639160,-0.0007629395,9.7811889652,0.0007595486,-0.0000651042,-0.1745768229
558964.0600241680,-0.0874328613,0.0088500977,9.7819519046,0.0018988715,-0.0000759549,-0.1745334201
558964.0700241680,-0.0871276855,-0.0000000000,9.7816467288,0.0010308160,-0.0000434028,-0.1745659722
558964.0800241680,-0.0878906250,0.0076293945,9.7811889652,0.0015516493,-0.0000542535,-0.1745334201
558964.0900241680,-0.0881958008,0.0004577637,9.7816467288,0.0013888889,-0.0000759549,-0.1745442708
558964.1000241680,-0.0883483887,0.0056457520,9.7821044925,0.0011501736,-0.0000542535,-0.1745225694
558964.1100241680,-0.0875854492,0.0033569336,9.7814941409,0.0017252604,-0.0000759549,-0.1744683160
558964.1200241680,-0.0877380371,0.0038146973,9.7810363773,0.0008572049,-0.0000434028,-0.1745008680
558964.1300241679,-0.0883483887,0.0057983398,9.7816467288,0.0019639757,-0.0000759549,-0.1745008680
558964.1400241680,-0.0889587402,-0.0010681152,9.7816467288,0.0008029514,-0.0000434028,-0.1745334201
558964.1500241680,-0.0872802734,0.0100708008,9.7808837894,0.0018988715,-0.0000868056,-0.1745659722
558964.1600241680,-0.0874328613,-0.0001525879,9.7824096683,0.0010308160,-0.0000217014,-0.1745876736
558964.1700241680,-0.0881958008,0.0064086914,9.7811889652,0.0014648437,-0.0000868056,-0.1745876736
558964.1800241680,-0.0881958008,0.0015258789,9.7808837894,0.0014756944,-0.0000759549,-0.1746093750
558964.1900241680,-0.0875854492,0.0067138672,9.7814941409,0.0011176215,-0.0000434028,-0.1745985243
558964.2000241680,-0.0888061523,0.0038146973,9.7810363773,0.0017795139,-0.0000868056,-0.1745551215
558964.2100241680,-0.0878906250,0.0007629395,9.7813415531,0.0008789062,-0.0000325521,-0.1745551215
558964.2200241680,-0.0878906250,0.0056457520,9.7808837894,0.0019531250,-0.0000651042,-0.1745225694
558964.2300241680,-0.0877380371,0.0013732910,9.7816467288,0.0008355035,-0.0000651042,-0.1745768229
558964.2400241680,-0.0877380371,0.0088500977,9.7817993167,0.0018120660,-0.0000759549,-0.1745876736
558964.2500241681,-0.0892639160,-0.0015258789,9.7821044925,0.0010199653,-0.0000542535,-0.1745659722
558964.2600241679,-0.0872802734,0.0074768066,9.7811889652,0.0015625000,-0.0000651042,-0.1745442708
558964.2700241680,-0.0880432129,0.0015258789,9.7808837894,0.0014105903,-0.0000542535,-0.1745876736
558964.2800241680,-0.0885009766,0.0068664551,9.7814941409,0.0011718750,-0.0000542535,-0.1745442708
558964.2900241680,-0.0880432129,0.0019836426,9.7810363773,0.0017469618,-0.0000651042,-0.1745442708
558964.3000241680,-0.0877380371,0.0025939941,9.7813415531,0.0008897569,-0.0000542535,-0.1745008680
558964.3100241680,-0.0869750977,0.0074768066,9.7808837894,0.0018988715,-0.0000651042,-0.1745551215
558964.3200241680,-0.0881958008,0.0009155273,9.7817993167,0.0008029514,-0.0000434028,-0.1745768229
558964.3300241680,-0.0885009766,0.0076293945,9.7814941409,0.0018880208,-0.0000868056,-0.1745334201
558964.3400241680,-0.0891113281,-0.0006103516,9.7816467288,0.0010308160,-0.0000542535,-0.1745334201
558964.3500241680,-0.0874328613,0.0080871582,9.7817993167,0.0015842014,-0.0000651042,-0.1745334201
558964.3600241680,-0.0881958008,0.0004577637,9.7813415531,0.0013129340,-0.0000651042,-0.1745225694
558964.3700241680,-0.0883483887,0.0059509277,9.7819519046,0.0012586806,-0.0000759549,-0.1745117187
558964.3800241679,-0.0892639160,0.0016784668,9.7814941409,0.0016384549,-0.0000651042,-0.1745008680
558964.3900241680,-0.0874328613,0.0053405762,9.7817993167,0.0010199653,-0.0000434028,-0.1745876736
558964.4000241680,-0.0874328613,0.0050354004,9.7814941409,0.0018229167,-0.0000759549,-0.1746202257
558964.4100241680,-0.0883483887,0.0013732910,9.7813415531,0.0008897569,-0.0000434028,-0.1746419271
558964.4200241680,-0.0878906250,0.0056457520,9.7814941409,0.0019097222,-0.0000759549,-0.1746093750
558964.4300241680,-0.0885009766,0.0009155273,9.7814941409,0.0008680556,-0.0000542535,-0.1745985243
558964.4400241680,-0.0868225098,0.0090026855,9.7819519046,0.0017469618,-0.0000542535,-0.1745659722
558964.4500241680,-0.0880432129,-0.0019836426,9.7811889652,0.0011501736,-0.0000651042,-0.1745659722
558964.4600241680,-0.0885009766,0.0068664551,9.7816467288,0.0013780382,-0.0000759549,-0.1745225694
558964.4700241680,-0.0878906250,0.0030517578,9.7810363773,0.0016384549,-0.0001085069,-0.1745768229
558964.4800241680,-0.0871276855,0.0039672852,9.7808837894,0.0009548611,-0.0000434028,-0.1745225694
558964.4900241680,-0.0871276855,0.0025939941,9.7817993167,0.0018880208,-0.0000759549,-0.1745225694
558964.5000241681,-0.0889587402,0.0009155273,9.7810363773,0.0008246528,-0.0000651042,-0.1745225694
558964.5100241679,-0.0894165039,0.0090026855,9.7819519046,0.0019205729,-0.0001085069,-0.1745117187
558964.5200241680,-0.0874328613,-0.0003051758,9.7811889652,0.0008897569,-0.0000542535,-0.1745334201
558964.5300241680,-0.0875854492,0.0071716309,9.7814941409,0.0016710069,-0.0000651042,-0.1745117187
558964.5400241680,-0.0881958008,-0.0006103516,9.7817993167,0.0013020833,-0.0000651042,-0.1745117187
558964.5500241680,-0.0889587402,0.0074768066,9.7819519046,0.0013129340,-0.0000868056,-0.1745768229
558964.5600241680,-0.0877380371,0.0025939941,9.7816467288,0.0016384549,-0.0000542535,-0.1745334201
558964.5700241680,-0.0869750977,0.0030517578,9.7816467288,0.0009440104,-0.0000434028,-0.1745876736
558964.5800241680,-0.0883483887,0.0035095215,9.7810363773,0.0018446181,-0.0000759549,-0.1745442708
558964.5900241680,-0.0888061523,0.0021362305,9.7813415531,0.0008463542,-0.0000542535,-0.1746093750
558964.6000241680,-0.0865173340,0.0086975098,9.7810363773,0.0018988715,-0.0000759549,-0.1745551215
558964.6100241680,-0.0880432129,-0.0010681152,9.7816467288,0.0008897569,-0.0000434028,-0.1745659722
558964.6200241680,-0.0883483887,0.0061035156,9.7817993167,0.0017361111,-0.0000542535,-0.1745008680
558964.6300241679,-0.0878906250,-0.0000000000,9.7814941409,0.0012044271,-0.0000868056,-0.1745334201
558964.6400241680,-0.0875854492,0.0090026855,9.7819519046,0.0013237847,-0.0000651042,-0.1745225694
558964.6500241680,-0.0878906250,-0.0000000000,9.7816467288,0.0015733507,-0.0000651042,-0.1745117187
558964.6600241680,-0.0892639160,0.0036621094,9.7813415531,0.0010091146,-0.0000542535,-0.1744900174
558964.6700241680,-0.0891113281,0.0054931641,9.7810363773,0.0019639757,-0.0001085069,-0.1745008680
558964.6800241680,-0.0863647461,0.0012207031,9.7816467288,0.0007703993,-0.0000542535,-0.1745768229
558964.6900241680,-0.0869750977,0.0077819824,9.7807312015,0.0019531250,-0.0001085069,-0.1745551215
558964.7000241680,-0.0880432129,-0.0027465820,9.7816467288,0.0009765625,-0.0000434028,-0.1745225694
558964.7100241680,-0.0888061523,0.0093078613,9.7814941409,0.0015516493,-0.0000651042,-0.1745551215
558964.7200241680,-0.0892639160,0.0010681152,9.7810363773,0.0014648437,-0.0000868056,-0.1745768229
558964.7300241690,-0.0868225098,0.0053405762,9.7822570804,0.0010308160,-0.0000542535,-0.1745876736
558964.7400241690,-0.0877380371,0.0032043457,9.7813415531,0.0019205729,-0.0000651042,-0.1745659722
558964.7500241690,-0.0888061523,0.0013732910,9.7816467288,0.0008246528,-0.0000434028,-0.1745334201
558964.7600241690,-0.0888061523,0.0070190430,9.7810363773,0.0019639757,-0.0000651042,-0.1745442708
558964.7700241690,-0.0871276855,-0.0001525879,9.7811889652,0.0008572049,-0.0000759549,-0.1745117187
558964.7800241690,-0.0874328613,0.0070190430,9.7817993167,0.0017035590,-0.0000759549,-0.1744683160
558964.7900241690,-0.0885009766,-0.0010681152,9.7817993167,0.0012586806,-0.0000542535,-0.1745008680
558964.8000241690,-0.0883483887,0.0083923340,9.7804260257,0.0013780382,-0.0000651042,-0.1745225694
558964.8100241690,-0.0868225098,0.0021362305,9.7821044925,0.0015299479,-0.0001085069,-0.1745442708
558964.8200241691,-0.0877380371,0.0025939941,9.7824096683,0.0010308160,-0.0000434028,-0.1745442708
558964.8300241689,-0.0880432129,0.0027465820,9.7816467288,0.0018880208,-0.0000868056,-0.1745442708
558964.8400241690,-0.0874328613,0.0038146973,9.7811889652,0.0008246528,-0.0000434028,-0.1745659722
558964.8500241690,-0.0872802734,0.0082397461,9.7811889652,0.0018988715,-0.0000542535,-0.1745551215
558964.8600241690,-0.0869750977,-0.0030517578,9.7810363773,0.0008680556,-0.0000759549,-0.1745659722
558964.8700241690,-0.0877380371,0.0070190430,9.7811889652,0.0018229167,-0.0000759549,-0.1745985243
558964.8800241690,-0.0898742676,0.0004577637,9.7821044925,0.0012044271,-0.0000325521,-0.1745768229
558964.8900241690,-0.0883483887,0.0086975098,9.7821044925,0.0013129340,-0.0000651042,-0.1745551215
558964.9000241690,-0.0869750977,-0.0000000000,9.7813415531,0.0016167535,-0.0000868056,-0.1745334201
558964.9100241690,-0.0880432129,0.0028991699,9.7822570804,0.0009440104,-0.0000651042,-0.1745117187
558964.9200241690,-0.0886535645,0.0051879883,9.7813415531,0.0019748264,-0.0000976562,-0.1744683160
558964.9300241690,-0.0874328613,0.0015258789,9.7811889652,0.0007703993,-0.0000434028,-0.1744900174
558964.9400241690,-0.0877380371,0.0070190430,9.7814941409,0.0019314236,-0.0000542535,-0.1745334201
558964.9500241691,-0.0877380371,-0.0022888184,9.7808837894,0.0009657118,-0.0000651042,-0.1745334201
558964.9600241689,-0.0875854492,0.0080871582,9.7814941409,0.0016384549,-0.0000868056,-0.1745334201
558964.9700241690,-0.0877380371,0.0010681152,9.7817993167,0.0013129340,-0.0000542535,-0.1745551215
558964.9800241690,-0.0874328613,0.0068664551,9.7814941409,0.0012152778,-0.0000651042,-0.1745442708
558964.9900241690,-0.0885009766,0.0001525879,9.7810363773,0.0017144097,-0.0000868056,-0.1745659722
558965.0000241690,-0.0881958008,0.0025939941,9.7819519046,0.0009331597,-0.0000759549,-0.1745768229
558965.0100241690,-0.0881958008,0.0073242188,9.7817993167,0.0019965278,-0.0000759549,-0.1748263889
558965.0200241690,-0.0872802734,0.0001525879,9.7811889652,0.0007703993,-0.0000434028,-0.1745659722
558965.0300241690,-0.0881958008,0.0065612793,9.7810363773,0.0018771701,-0.0001085069,-0.1745117187
558965.0400241690,-0.0885009766,-0.0022888184,9.7817993167,0.0010525174,-0.0000542535,-0.1744900174
558965.0500241690,-0.0875854492,0.0086975098,9.7814941409,0.0014865451,-0.0000759549,-0.1745225694
558965.0600241690,-0.0878906250,0.0013732910,9.7813415531,0.0015407986,-0.0000542535,-0.1745225694
558965.0700241691,-0.0881958008,0.0041198730,9.7814941409,0.0010091146,-0.0000651042,-0.1745225694
558965.0800241689,-0.0889587402,0.0032043457,9.7813415531,0.0019314236,-0.0000868056,-0.1745225694
558965.0900241690,-0.0880432129,0.0013732910,9.7816467288,0.0008246528,-0.0000651042,-0.1745768229
558965.1000241690,-0.0874328613,0.0083923340,9.7817993167,0.0019205729,-0.0000542535,-0.1745442708
558965.1100241690,-0.0881958008,-0.0019836426,9.7816467288,0.0009114583,-0.0000651042,-0.1745768229
558965.1200241690,-0.0875854492,0.0073242188,9.7810363773,0.0017144097,-0.0000651042,-0.1745334201
558965.1300241690,-0.0869750977,-0.0004577637,9.7817993167,0.0012586806,-0.0000651042,-0.1745876736
558965.1400241690,-0.0880432129,0.0074768066,9.7816467288,0.0013780382,-0.0000542535,-0.1745985243
558965.1500241690,-0.0877380371,0.0006103516,9.7819519046,0.0016059028,-0.0000651042,-0.1745876736
558965.1600241690,-0.0878906250,0.0033569336,9.7810363773,0.0009765625,-0.0000542535,-0.1745876736
558965.1700241690,-0.0889587402,0.0045776367,9.7811889652,0.0019097222,-0.0001193576,-0.1745985243
558965.1800241690,-0.0878906250,0.0010681152,9.7813415531,0.0007812500,-0.0000434028,-0.1745659722
558965.1900241690,-0.0878906250,0.0067138672,9.7813415531,0.0019531250,-0.0000759549,-0.1745334201
558965.2000241691,-0.0881958008,-0.0015258789,9.7813415531,0.0009440104,-0.0000542535,-0.1744791667
558965.2100241689,-0.0874328613,0.0091552734,9.7811889652,0.0017035590,-0.0000759549,-0.1744683160
558965.2200241690,-0.0869750977,-0.0004577637,9.7813415531,0.0012912326,-0.0000759549,-0.1745117187
558965.2300241690,-0.0875854492,0.0051879883,9.7811889652,0.0012586806,-0.0000542535,-0.1745117187
558965.2400241690,-0.0878906250,0.0015258789,9.7816467288,0.0017035590,-0.0000868056,-0.1745117187
558965.2500241690,-0.0877380371,0.0044250488,9.7811889652,0.0009223090,-0.0000651042,-0.1745334201
558965.2600241690,-0.0869750977,0.0050354004,9.7811889652,0.0019639757,-0.0000868056,-0.1745551215
558965.2700241690,-0.0866699219,-0.0004577637,9.7811889652,0.0007703993,-0.0000542535,-0.1745985243
558965.2800241690,-0.0885009766,0.0073242188,9.7816467288,0.0019531250,-0.0000759549,-0.1745334201
558965.2900241690,-0.0883483887,-0.0001525879,9.7813415531,0.0010199653,-0.0000325521,-0.1745768229
558965.3000241690,-0.0880432129,0.0080871582,9.7813415531,0.0015625000,-0.0000759549,-0.1745876736
558965.3100241690,-0.0872802734,-0.0000000000,9.7811889652,0.0012912326,-0.0000868056,-0.1745551215
558965.3200241691,-0.0874328613,0.0057983398,9.7814941409,0.0013020833,-0.0000542535,-0.1745442708
558965.3300241689,-0.0881958008,0.0010681152,9.7813415531,0.0016710069,-0.0000868056,-0.1745117187
558965.3400241690,-0.0877380371,0.0050354004,9.7814941409,0.0009765625,-0.0000325521,-0.1744791667
558965.3500241690,-0.0872802734,0.0045776367,9.7811889652,0.0018446181,-0.0001085069,-0.1744791667
558965.3600241690,-0.0875854492,0.0001525879,9.7811889652,0.0008680556,-0.0000542535,-0.1744466146
558965.3700241690,-0.0866699219,0.0051879883,9.7817993167,0.0019531250,-0.0000759549,-0.1745334201
558965.3800241690,-0.0883483887,0.0009155273,9.7808837894,0.0008463542,-0.0000542535,-0.1745768229
558965.3900241690,-0.0875854492,0.0076293945,9.7814941409,0.0017361111,-0.0000759549,-0.1745876736
558965.4000241690,-0.0883483887,-0.0018310547,9.7817993167,0.0012044271,-0.0000651042,-0.1745768229
558965.4100241690,-0.0880432129,0.0064086914,9.7814941409,0.0013997396,-0.0000759549,-0.1745876736
558965.4200241690,-0.0881958008,0.0021362305,9.7817993167,0.0016493056,-0.0000542535,-0.1745442708
558965.4300241690,-0.0872802734,0.0044250488,9.7816467288,0.0009331597,-0.0000434028,-0.1745659722
558965.4400241690,-0.0871276855,0.0039672852,9.7813415531,0.0018988715,-0.0000651042,-0.1745442708
558965.4500241691,-0.0883483887,-0.0000000000,9.7817993167,0.0007921007,-0.0000651042,-0.1745768229
558965.4600241689,-0.0877380371,0.0073242188,9.7816467288,0.0019748264,-0.0000759549,-0.1745551215
558965.4700241690,-0.0871276855,-0.0010681152,9.7813415531,0.0009548611,-0.0000542535,-0.1745225694
558965.4800241690,-0.0869750977,0.0083923340,9.7814941409,0.0016384549,-0.0000434028,-0.1745551215
558965.4900241690,-0.0877380371,-0.0004577637,9.7813415531,0.0013237847,-0.0000759549,-0.1745551215
558965.5000241690,-0.0880432129,0.0065612793,9.7814941409,0.0011827257,-0.0000759549,-0.1745334201
558965.5100241690,-0.0877380371,0.0022888184,9.7813415531,0.0017903646,-0.0000759549,-0.1745225694
558965.5200241690,-0.0877380371,0.0021362305,9.7816467288,0.0008355035,-0.0000542535,-0.1745008680
558965.5300241690,-0.0872802734,0.0061035156,9.7814941409,0.0019965278,-0.0001085069,-0.1745442708
558965.5400241690,-0.0880432129,-0.0001525879,9.7817993167,0.0008463542,-0.0000651042,-0.1745659722
558965.5500241690,-0.0878906250,0.0083923340,9.7814941409,0.0018446181,-0.0000759549,-0.1745551215
558965.5600241690,-0.0877380371,-0.0019836426,9.7821044925,0.0011284722,-0.0000651042,-0.1745768229
558965.5700241691,-0.0869750977,0.0073242188,9.7816467288,0.0014322917,-0.0000651042,-0.1745768229
558965.5800241689,-0.0885009766,0.0003051758,9.7817993167,0.0015625000,-0.0001085069,-0.1745768229
558965.5900241690,-0.0892639160,0.0045776367,9.7816467288,0.0010091146,-0.0000759549,-0.1745768229
558965.6000241690,-0.0877380371,0.0036621094,9.7813415531,0.0019531250,-0.0000759549,-0.1745442708
558965.6100241690,-0.0865173340,0.0001525879,9.7813415531,0.0008246528,-0.0000434028,-0.1744791667
558965.6200241690,-0.0866699219,0.0080871582,9.7807312015,0.0019314236,-0.0000759549,-0.1744683160
558965.6300241690,-0.0878906250,-0.0009155273,9.7814941409,0.0009114583,-0.0000759549,-0.1744900174
558965.6400241690,-0.0885009766,0.0065612793,9.7821044925,0.0016384549,-0.0000868056,-0.1744574653
558965.6500241690,-0.0878906250,-0.0007629395,9.7819519046,0.0013780382,-0.0000542535,-0.1745008680
558965.6600241690,-0.0877380371,0.0071716309,9.7811889652,0.0011718750,-0.0000651042,-0.1745442708
558965.6700241690,-0.0880432129,0.0022888184,9.7821044925,0.0018337674,-0.0001085069,-0.1745334201
558965.6800241690,-0.0872802734,0.0007629395,9.7814941409,0.0008572049,-0.0000542535,-0.1745659722
558965.6900241690,-0.0880432129,0.0059509277,9.7825622562,0.0019856771,-0.0000759549,-0.1745008680
558965.7000241691,-0.0874328613,-0.0000000000,9.7811889652,0.0008355035,-0.0000434028,-0.1745659722
558965.7100241689,-0.0875854492,0.0082397461,9.7811889652,0.0018120660,-0.0000759549,-0.1745985243
558965.7200241690,-0.0878906250,-0.0016784668,9.7808837894,0.0010959201,-0.0000759549,-0.1745985243
558965.7300241690,-0.0871276855,0.0077819824,9.7819519046,0.0014865451,-0.0000651042,-0.1746202257
558965.7400241690,-0.0874328613,0.0003051758,9.7821044925,0.0015733507,-0.0000651042,-0.1745985243
558965.7500241690,-0.0875854492,0.0038146973,9.7810363773,0.0010308160,-0.0000759549,-0.1745442708
558965.7600241690,-0.0872802734,0.0039672852,9.7819519046,0.0018663194,-0.0001085069,-0.1745225694
558965.7700241690,-0.0878906250,0.0013732910,9.7811889652,0.0008355035,-0.0000759549,-0.1745117187
558965.7800241690,-0.0886535645,0.0068664551,9.7811889652,0.0019314236,-0.0000651042,-0.1745117187
558965.7900241690,-0.0872802734,-0.0016784668,9.7816467288,0.0009114583,-0.0000434028,-0.1745334201
558965.8000241690,-0.0857543945,0.0071716309,9.7808837894,0.0017469618,-0.0000868056,-0.1745442708
558965.8100241700,-0.0878906250,-0.0001525879,9.7824096683,0.0012261285,-0.0000759549,-0.1745225694
558965.8200241700,-0.0883483887,0.0073242188,9.7817993167,0.0013888889,-0.0000542535,-0.1745334201
558965.8300241700,-0.0885009766,-0.0001525879,9.7816467288,0.0015842014,-0.0000651042,-0.1745008680
558965.8400241700,-0.0865173340,0.0030517578,9.7813415531,0.0009765625,-0.0000434028,-0.1745008680
558965.8500241700,-0.0866699219,0.0053405762,9.7811889652,0.0019205729,-0.0001085069,-0.1745117187
558965.8600241700,-0.0880432129,0.0009155273,9.7813415531,0.0007812500,-0.0000542535,-0.1745985243
558965.8700241700,-0.0881958008,0.0077819824,9.7811889652,0.0019531250,-0.0000759549,-0.1746093750
558965.8800241700,-0.0881958008,-0.0033569336,9.7814941409,0.0009982639,-0.0000542535,-0.1745768229
558965.8900241700,-0.0863647461,0.0090026855,9.7811889652,0.0016384549,-0.0000868056,-0.1745334201
558965.9000241701,-0.0880432129,-0.0009155273,9.7824096683,0.0013237847,-0.0000542535,-0.1745008680
558965.9100241699,-0.0888061523,0.0056457520,9.7817993167,0.0012152778,-0.0000759549,-0.1744791667
558965.9200241700,-0.0880432129,0.0006103516,9.7811889652,0.0017469618,-0.0000759549,-0.1745008680
558965.9300241700,-0.0854492188,0.0032043457,9.7816467288,0.0009548611,-0.0000651042,-0.1744791667
558965.9400241700,-0.0874328613,0.0057983398,9.7813415531,0.0019531250,-0.0000868056,-0.1745334201
558965.9500241700,-0.0888061523,0.0003051758,9.7811889652,0.0008463542,-0.0000651042,-0.1745876736
558965.9600241700,-0.0877380371,0.0053405762,9.7816467288,0.0019097222,-0.0000651042,-0.1745551215
558965.9700241700,-0.0860595703,-0.0018310547,9.7811889652,0.0009331597,-0.0000542535,-0.1745768229
558965.9800241700,-0.0869750977,0.0086975098,9.7813415531,0.0016276042,-0.0000651042,-0.1745876736
558965.9900241700,-0.0903320313,-0.0012207031,9.7814941409,0.0013129340,-0.0001193576,-0.1745876736
558966.0000241700,-0.0892639160,0.0047302246,9.7811889652,0.0013020833,-0.0000759549,-0.1745551215
558966.0100241700,-0.0866699219,0.0018310547,9.7819519046,0.0017144097,-0.0000542535,-0.1747938368
558966.0200241701,-0.0863647461,0.0038146973,9.7813415531,0.0009765625,-0.0000542535,-0.1745008680
558966.0300241699,-0.0881958008,0.0045776367,9.7814941409,0.0018120660,-0.0001085069,-0.1744357639
558966.0400241700,-0.0897216797,-0.0007629395,9.7819519046,0.0008680556,-0.0000651042,-0.1744574653
558966.0500241700,-0.0869750977,0.0059509277,9.7807312015,0.0019097222,-0.0000976562,-0.1744574653
558966.0600241700,-0.0856018066,0.0007629395,9.7810363773,0.0009440104,-0.0000325521,-0.1744791667
558966.0700241700,-0.0868225098,0.0062561035,9.7814941409,0.0018012153,-0.0000759549,-0.1745225694
558966.0800241700,-0.0891113281,-0.0010681152,9.7817993167,0.0011067708,-0.0000759549,-0.1745442708
558966.0900241700,-0.0878906250,0.0083923340,9.7816467288,0.0015299479,-0.0000868056,-0.1745551215
558966.1000241700,-0.0849914551,0.0006103516,9.7819519046,0.0014648437,-0.0000542535,-0.1745551215
558966.1100241700,-0.0868225098,0.0042724609,9.7813415531,0.0010633681,-0.0000542535,-0.1745334201
558966.1200241700,-0.0889587402,0.0019836426,9.7817993167,0.0018229167,-0.0000868056,-0.1745985243
558966.1300241700,-0.0895690918,0.0022888184,9.7814941409,0.0009223090,-0.0001085069,-0.1746093750
558966.1400241700,-0.0866699219,0.0059509277,9.7814941409,0.0019531250,-0.0000651042,-0.1745876736
558966.1500241701,-0.0854492188,-0.0012207031,9.7821044925,0.0008572049,-0.0000542535,-0.1745876736
558966.1600241699,-0.0888061523,0.0059509277,9.7807312015,0.0018229167,-0.0000759549,-0.1745442708
558966.1700241700,-0.0906372070,-0.0009155273,9.7816467288,0.0010850694,-0.0000759549,-0.1745442708
558966.1800241700,-0.0875854492,0.0076293945,9.7816467288,0.0014973958,-0.0000759549,-0.1745008680
558966.1900241700,-0.0854492188,-0.0010681152,9.7816467288,0.0014539931,-0.0000651042,-0.1744683160
558966.2000241700,-0.0869750977,0.0039672852,9.7813415531,0.0011718750,-0.0000217014,-0.1745225694
558966.2100241700,-0.0906372070,0.0030517578,9.7811889652,0.0017795139,-0.0001410590,-0.1745008680
558966.2200241700,-0.0875854492,0.0027465820,9.7822570804,0.0008789062,-0.0000651042,-0.1745334201
558966.2300241700,-0.0862121582,0.0038146973,9.7816467288,0.0019639757,-0.0000759549,-0.1745334201
558966.2400241700,-0.0871276855,-0.0009155273,9.7810363773,0.0008355035,-0.0000325521,-0.1745659722
558966.2500241700,-0.0885009766,0.0085449219,9.7813415531,0.0018880208,-0.0001085069,-0.1746744792
558966.2600241700,-0.0889587402,-0.0012207031,9.7813415531,0.0010633681,-0.0000759549,-0.1747504340
558966.2700241701,-0.0883483887,0.0068664551,9.7817993167,0.0015516493,-0.0001085069,-0.1745768229
558966.2800241699,-0.0869750977,-0.0009155273,9.7811889652,0.0014756944,-0.0000542535,-0.1745117187
558966.2900241700,-0.0865173340,0.0051879883,9.7808837894,0.0011284722,-0.0000434028,-0.1744574653
558966.3000241700,-0.0894165039,0.0030517578,9.7819519046,0.0018120660,-0.0001193576,-0.1744791667
558966.3100241700,-0.0874328613,0.0003051758,9.7817993167,0.0008463542,-0.0000651042,-0.1744791667
558966.3200241700,-0.0868225098,0.0054931641,9.7813415531,0.0019748264,-0.0000759549,-0.1744791667
558966.3300241700,-0.0871276855,0.0001525879,9.7808837894,0.0008897569,-0.0000651042,-0.1745442708
558966.3400241700,-0.0885009766,0.0074768066,9.7810363773,0.0018120660,-0.0000868056,-0.1745117187
558966.3500241700,-0.0885009766,-0.0027465820,9.7816467288,0.0011284722,-0.0000759549,-0.1745117187
558966.3600241700,-0.0866699219,0.0073242188,9.7808837894,0.0015190972,-0.0000759549,-0.1745551215
558966.3700241700,-0.0852966309,0.0012207031,9.7814941409,0.0014865451,-0.0000651042,-0.1745334201
558966.3800241700,-0.0869750977,0.0047302246,9.7819519046,0.0010633681,-0.0000434028,-0.1745334201
558966.3900241700,-0.0880432129,0.0016784668,9.7814941409,0.0018446181,-0.0000759549,-0.1745442708
558966.4000241701,-0.0881958008,0.0004577637,9.7813415531,0.0008463542,-0.0000542535,-0.1745876736
558966.4100241699,-0.0886535645,0.0074768066,9.7816467288,0.0020616319,-0.0001085069,-0.1745659722
558966.4200241700,-0.0872802734,-0.0015258789,9.7810363773,0.0008463542,-0.0000542535,-0.1746202257
558966.4300241700,-0.0885009766,0.0080871582,9.7813415531,0.0017252604,-0.0001085069,-0.1745551215
558966.4400241700,-0.0885009766,-0.0024414063,9.7813415531,0.0013237847,-0.0001085069,-0.1745551215
558966.4500241700,-0.0872802734,0.0064086914,9.7821044925,0.0012261285,-0.0000542535,-0.1745225694
558966.4600241700,-0.0866699219,0.0018310547,9.7816467288,0.0017578125,-0.0000759549,-0.1744791667
558966.4700241700,-0.0871276855,0.0015258789,9.7819519046,0.0008789062,-0.0000542535,-0.1745225694
558966.4800241700,-0.0886535645,0.0053405762,9.7817993167,0.0020399306,-0.0000976562,-0.1745659722
558966.4900241700,-0.0869750977,-0.0006103516,9.7813415531,0.0008029514,-0.0000868056,-0.1745876736
558966.5000241700,-0.0872802734,0.0073242188,9.7813415531,0.0018337674,-0.0000651042,-0.1745551215
558966.5100241700,-0.0869750977,-0.0025939941,9.7811889652,0.0011284722,-0.0000651042,-0.1745225694
558966.5200241701,-0.0875854492,0.0067138672,9.7813415531,0.0014539931,-0.0000868056,-0.1745551215
558966.5300241699,-0.0874328613,0.0010681152,9.7810363773,0.0015190972,-0.0001085069,-0.1745768229
558966.5400241700,-0.0871276855,0.0051879883,9.7819519046,0.0011067708,-0.0000434028,-0.1745659722
558966.5500241700,-0.0877380371,0.0019836426,9.7814941409,0.0018446181,-0.0000651042,-0.1745334201
558966.5600241700,-0.0871276855,0.0009155273,9.7811889652,0.0008463542,-0.0000434028,-0.1745768229
558966.5700241700,-0.0866699219,0.0059509277,9.7810363773,0.0019748264,-0.0000868056,-0.1745659722
558966.5800241700,-0.0880432129,-0.0012207031,9.7814941409,0.0008463542,-0.0000868056,-0.1745551215
558966.5900241700,-0.0874328613,0.0068664551,9.7827148441,0.0018663194,-0.0000759549,-0.1744683160
558966.6000241700,-0.0877380371,-0.0010681152,9.7816467288,0.0011284722,-0.0000325521,-0.1745117187
558966.6100241700,-0.0874328613,0.0068664551,9.7819519046,0.0014431424,-0.0001085069,-0.1745225694
558966.6200241700,-0.0886535645,-0.0000000000,9.7816467288,0.0016059028,-0.0000868056,-0.1745442708
558966.6300241700,-0.0878906250,0.0038146973,9.7816467288,0.0009982639,-0.0000868056,-0.1745334201
558966.6400241700,-0.0869750977,0.0036621094,9.7807312015,0.0019205729,-0.0000542535,-0.1745334201
558966.6500241701,-0.0877380371,0.0006103516,9.7810363773,0.0007812500,-0.0000434028,-0.1745876736
558966.6600241699,-0.0877380371,0.0059509277,9.7816467288,0.0019965278,-0.0000759549,-0.1745659722
558966.6700241700,-0.0881958008,-0.0015258789,9.7816467288,0.0009440104,-0.0001085069,-0.1745334201
558966.6800241700,-0.0872802734,0.0077819824,9.7805786136,0.0017144097,-0.0000542535,-0.1745442708
558966.6900241700,-0.0883483887,-0.0013732910,9.7827148441,0.0013020833,-0.0000651042,-0.1745985243
558966.7000241700,-0.0886535645,0.0053405762,9.7811889652,0.0012152778,-0.0000868056,-0.1745876736
558966.7100241700,-0.0857543945,0.0024414063,9.7807312015,0.0018012153,-0.0000868056,-0.1745876736
558966.7200241700,-0.0863647461,0.0024414063,9.7816467288,0.0008246528,-0.0000434028,-0.1745334201
558966.7300241700,-0.0874328613,0.0041198730,9.7813415531,0.0020073785,-0.0000759549,-0.1744791667
558966.7400241700,-0.0878906250,-0.0006103516,9.7819519046,0.0008680556,-0.0000434028,-0.1745117187
558966.7500241700,-0.0883483887,0.0085449219,9.7807312015,0.0018012153,-0.0001302083,-0.1744683160
558966.7600241700,-0.0877380371,-0.0032043457,9.7821044925,0.0011718750,-0.0000651042,-0.1745659722
558966.7700241701,-0.0869750977,0.0061035156,9.7811889652,0.0014105903,-0.0000759549,-0.1745876736
558966.7800241699,-0.0885009766,0.0004577637,9.7813415531,0.0015733507,-0.0000651042,-0.1745876736
558966.7900241700,-0.0875854492,0.0035095215,9.7821044925,0.0010199653,-0.0000759549,-0.1746093750
558966.8000241700,-0.0872802734,0.0044250488,9.7814941409,0.0019205729,-0.0001085069,-0.1745985243
558966.8100241700,-0.0871276855,-0.0004577637,9.7810363773,0.0008463542,-0.0000651042,-0.1745768229
558966.8200241700,-0.0880432129,0.0048828125,9.7813415531,0.0019531250,-0.0000434028,-0.1745334201
558966.8300241700,-0.0863647461,-0.0007629395,9.7819519046,0.0009331597,-0.0000759549,-0.1745117187
558966.8400241700,-0.0875854492,0.0070190430,9.7807312015,0.0017361111,-0.0000868056,-0.1745334201
558966.8500241700,-0.0863647461,-0.0012207031,9.7819519046,0.0012044271,-0.0001193576,-0.1745334201
558966.8600241700,-0.0872802734,0.0051879883,9.7819519046,0.0014431424,-0.0000542535,-0.1744900174
558966.8700241700,-0.0888061523,-0.0000000000,9.7817993167,0.0015842014,-0.0000868056,-0.1744574653
558966.8800241710,-0.0862121582,0.0041198730,9.7813415531,0.0010850694,-0.0000868056,-0.1744574653
558966.8900241710,-0.0885009766,0.0030517578,9.7814941409,0.0018446181,-0.0001302083,-0.1744791667
558966.9000241710,-0.0871276855,0.0001525879,9.7819519046,0.0008680556,-0.0000325521,-0.1745117187
558966.9100241710,-0.0869750977,0.0062561035,9.7811889652,0.0019639757,-0.0001085069,-0.1745008680
558966.9200241710,-0.0878906250,-0.0009155273,9.7813415531,0.0008789062,-0.0000434028,-0.1745442708
558966.9300241710,-0.0880432129,0.0070190430,9.7813415531,0.0017795139,-0.0001085069,-0.1745442708
558966.9400241710,-0.0872802734,-0.0010681152,9.7810363773,0.0011827257,-0.0000868056,-0.1745442708
558966.9500241710,-0.0866699219,0.0064086914,9.7822570804,0.0014756944,-0.0000542535,-0.1745442708
558966.9600241710,-0.0875854492,-0.0009155273,9.7816467288,0.0015516493,-0.0000651042,-0.1745551215
558966.9700241711,-0.0878906250,0.0041198730,9.7816467288,0.0010850694,-0.0000868056,-0.1746093750
558966.9800241709,-0.0883483887,0.0036621094,9.7813415531,0.0018337674,-0.0000868056,-0.1746093750
558966.9900241710,-0.0875854492,0.0009155273,9.7811889652,0.0008897569,-0.0000651042,-0.1745659722
558967.0000241710,-0.0871276855,0.0038146973,9.7810363773,0.0019639757,-0.0000759549,-0.1745551215
558967.0100241710,-0.0862121582,-0.0003051758,9.7816467288,0.0009114583,-0.0000651042,-0.1747938368
558967.0200241710,-0.0877380371,0.0083923340,9.7813415531,0.0018771701,-0.0000868056,-0.1744683160
558967.0300241710,-0.0875854492,-0.0013732910,9.7816467288,0.0010633681,-0.0000759549,-0.1745117187
558967.0400241710,-0.0857543945,0.0059509277,9.7819519046,0.0015407986,-0.0000542535,-0.1745334201
558967.0500241710,-0.0848388672,-0.0021362305,9.7819519046,0.0014105903,-0.0000868056,-0.1745551215
558967.0600241710,-0.0881958008,0.0054931641,9.7811889652,0.0012044271,-0.0000542535,-0.1745768229
558967.0700241710,-0.0868225098,0.0032043457,9.7816467288,0.0017903646,-0.0000868056,-0.1745876736
558967.0800241710,-0.0886535645,0.0012207031,9.7813415531,0.0009331597,-0.0000542535,-0.1745117187
558967.0900241710,-0.0859069824,0.0039672852,9.7816467288,0.0019205729,-0.0000759549,-0.1745008680
558967.1000241711,-0.0863647461,-0.0010681152,9.7814941409,0.0008572049,-0.0000325521,-0.1745334201
558967.1100241710,-0.0891113281,0.0076293945,9.7810363773,0.0018880208,-0.0001302083,-0.1745659722
558967.1200241710,-0.0883483887,-0.0009155273,9.7808837894,0.0010525174,-0.0001193576,-0.1746202257
558967.1300241710,-0.0878906250,0.0067138672,9.7813415531,0.0015625000,-0.0000651042,-0.1745551215
558967.1400241710,-0.0869750977,-0.0027465820,9.7814941409,0.0014756944,-0.0000759549,-0.1745334201
558967.1500241710,-0.0862121582,0.0059509277,9.7816467288,0.0011501736,-0.0000651042,-0.1745117187
558967.1600241710,-0.0889587402,0.0042724609,9.7808837894,0.0018120660,-0.0001085069,-0.1745225694
558967.1700241710,-0.0880432129,-0.0009155273,9.7817993167,0.0008029514,-0.0000868056,-0.1744791667
558967.1800241710,-0.0871276855,0.0039672852,9.7808837894,0.0019856771,-0.0000976562,-0.1745334201
558967.1900241710,-0.0865173340,-0.0007629395,9.7821044925,0.0009440104,-0.0000542535,-0.1745442708
558967.2000241710,-0.0886535645,0.0086975098,9.7810363773,0.0017578125,-0.0000868056,-0.1745659722
558967.2100241710,-0.0886535645,-0.0016784668,9.7814941409,0.0012044271,-0.0001085069,-0.1745768229
558967.2200241711,-0.0871276855,0.0041198730,9.7813415531,0.0014431424,-0.0000651042,-0.1745442708
558967.2300241709,-0.0862121582,0.0006103516,9.7811889652,0.0015842014,-0.0000542535,-0.1745225694
558967.2400241710,-0.0862121582,0.0047302246,9.7808837894,0.0010199653,-0.0000651042,-0.1745442708
558967.2500241710,-0.0875854492,0.0032043457,9.7813415531,0.0018229167,-0.0001193576,-0.1745117187
558967.2600241710,-0.0875854492,-0.0001525879,9.7814941409,0.0009331597,-0.0000542535,-0.1745985243
558967.2700241710,-0.0872802734,0.0045776367,9.7813415531,0.0019531250,-0.0001085069,-0.1745659722
558967.2800241710,-0.0877380371,-0.0001525879,9.7814941409,0.0009114583,-0.0000434028,-0.1745225694
558967.2900241710,-0.0878906250,0.0070190430,9.7813415531,0.0018012153,-0.0000759549,-0.1745008680
558967.3000241710,-0.0881958008,-0.0016784668,9.7808837894,0.0010959201,-0.0001085069,-0.1744900174
558967.3100241710,-0.0868225098,0.0061035156,9.7817993167,0.0015516493,-0.0000759549,-0.1745008680
558967.3200241710,-0.0860595703,-0.0006103516,9.7816467288,0.0014322917,-0.0000542535,-0.1745985243
558967.3300241710,-0.0877380371,0.0054931641,9.7819519046,0.0012152778,-0.0000759549,-0.1745442708
558967.3400241710,-0.0878906250,0.0013732910,9.7811889652,0.0018012153,-0.0001085069,-0.1745334201
558967.3500241711,-0.0869750977,0.0016784668,9.7814941409,0.0009223090,-0.0000759549,-0.1745334201
558967.3600241710,-0.0862121582,0.0041198730,9.7808837894,0.0019314236,-0.0000651042,-0.1745334201
558967.3700241710,-0.0863647461,-0.0004577637,9.7813415531,0.0007921007,-0.0000542535,-0.1745659722
558967.3800241710,-0.0888061523,0.0068664551,9.7808837894,0.0019205729,-0.0000868056,-0.1745442708
558967.3900241710,-0.0881958008,-0.0032043457,9.7814941409,0.0010308160,-0.0000868056,-0.1745442708
558967.4000241710,-0.0866699219,0.0076293945,9.7814941409,0.0016276042,-0.0000542535,-0.1745442708
558967.4100241710,-0.0859069824,-0.0007629395,9.7816467288,0.0014431424,-0.0000759549,-0.1745225694
558967.4200241710,-0.0880432129,0.0044250488,9.7821044925,0.0011718750,-0.0000651042,-0.1745334201
558967.4300241710,-0.0871276855,0.0019836426,9.7816467288,0.0018446181,-0.0000868056,-0.1745334201
558967.4400241710,-0.0883483887,0.0018310547,9.7816467288,0.0008355035,-0.0000759549,-0.1745334201
558967.4500241710,-0.0871276855,0.0050354004,9.7805786136,0.0019856771,-0.0000651042,-0.1744900174
558967.4600241710,-0.0868225098,-0.0021362305,9.7810363773,0.0008897569,-0.0000434028,-0.1745225694
558967.4700241711,-0.0869750977,0.0071716309,9.7814941409,0.0018446181,-0.0001193576,-0.1745225694
558967.4800241709,-0.0857543945,-0.0012207031,9.7813415531,0.0011827257,-0.0000651042,-0.1745659722
558967.4900241710,-0.0862121582,0.0070190430,9.7814941409,0.0014648437,-0.0000542535,-0.1745117187
558967.5000241710,-0.0875854492,-0.0012207031,9.7814941409,0.0014648437,-0.0000759549,-0.1745334201
558967.5100241710,-0.0883483887,0.0047302246,9.7824096683,0.0011827257,-0.0000759549,-0.1745659722
558967.5200241710,-0.0880432129,0.0021362305,9.7814941409,0.0017903646,-0.0001302083,-0.1745659722
558967.5300241710,-0.0869750977,0.0025939941,9.7808837894,0.0009223090,-0.0000542535,-0.1745876736
558967.5400241710,-0.0877380371,0.0042724609,9.7811889652,0.0020073785,-0.0000542535,-0.1745551215
558967.5500241710,-0.0865173340,-0.0022888184,9.7813415531,0.0008463542,-0.0000651042,-0.1745225694
558967.5600241710,-0.0865173340,0.0068664551,9.7811889652,0.0018337674,-0.0001085069,-0.1745442708
558967.5700241710,-0.0871276855,-0.0018310547,9.7814941409,0.0011284722,-0.0000868056,-0.1744791667
558967.5800241710,-0.0872802734,0.0059509277,9.7824096683,0.0014756944,-0.0000651042,-0.1744683160
558967.5900241710,-0.0875854492,-0.0009155273,9.7807312015,0.0015299479,-0.0000759549,-0.1745008680
558967.6000241711,-0.0872802734,0.0047302246,9.7814941409,0.0011501736,-0.0000868056,-0.1744574653
558967.6100241710,-0.0866699219,0.0018310547,9.7813415531,0.0018229167,-0.0000868056,-0.1745117187
558967.6200241710,-0.0880432129,-0.0000000000,9.7817993167,0.0009114583,-0.0000651042,-0.1745334201
558967.6300241710,-0.0871276855,0.0047302246,9.7808837894,0.0019965278,-0.0000759549,-0.1745442708
558967.6400241710,-0.0865173340,0.0006103516,9.7817993167,0.0008355035,-0.0000651042,-0.1745768229
558967.6500241710,-0.0857543945,0.0065612793,9.7814941409,0.0018771701,-0.0001085069,-0.1745551215
558967.6600241710,-0.0888061523,-0.0032043457,9.7808837894,0.0011176215,-0.0000759549,-0.1745876736
558967.6700241710,-0.0878906250,0.0068664551,9.7817993167,0.0014648437,-0.0000651042,-0.1746093750
558967.6800241710,-0.0866699219,0.0010681152,9.7817993167,0.0016167535,-0.0000651042,-0.1746093750
558967.6900241710,-0.0859069824,0.0033569336,9.7819519046,0.0009657118,-0.0000651042,-0.1745985243
558967.7000241710,-0.0874328613,0.0025939941,9.7810363773,0.0019639757,-0.0000868056,-0.1745659722
558967.7100241710,-0.0881958008,-0.0004577637,9.7813415531,0.0008355035,-0.0000651042,-0.1745225694
558967.7200241711,-0.0881958008,0.0068664551,9.7810363773,0.0019531250,-0.0000759549,-0.1744791667
558967.7300241709,-0.0863647461,-0.0027465820,9.7811889652,0.0009765625,-0.0000868056,-0.1744574653
558967.7400241710,-0.0854492188,0.0053405762,9.7811889652,0.0017144097,-0.0000759549,-0.1745008680
558967.7500241710,-0.0886535645,-0.0010681152,9.7814941409,0.0013563368,-0.0001085069,-0.1745442708
558967.7600241710,-0.0886535645,0.0057983398,9.7816467288,0.0013129340,-0.0000759549,-0.1745876736
558967.7700241710,-0.0860595703,-0.0000000000,9.7816467288,0.0016167535,-0.0000759549,-0.1745768229
558967.7800241710,-0.0845336914,0.0019836426,9.7811889652,0.0010308160,-0.0000542535,-0.1745876736
558967.7900241710,-0.0878906250,0.0033569336,9.7810363773,0.0019205729,-0.0000759549,-0.1745876736
558967.8000241710,-0.0892639160,0.0006103516,9.7814941409,0.0008680556,-0.0000759549,-0.1745768229
558967.8100241710,-0.0869750977,0.0056457520,9.7819519046,0.0019639757,-0.0001085069,-0.1745225694
558967.8200241710,-0.0852966309,-0.0024414063,9.7816467288,0.0009223090,-0.0000434028,-0.1745442708
558967.8300241710,-0.0863647461,0.0073242188,9.7808837894,0.0017795139,-0.0001085069,-0.1745334201
558967.8400241710,-0.0888061523,-0.0016784668,9.7814941409,0.0012152778,-0.0000651042,-0.1745008680
558967.8500241711,-0.0877380371,0.0056457520,9.7816467288,0.0014105903,-0.0000759549,-0.1745334201
558967.8600241710,-0.0860595703,-0.0004577637,9.7813415531,0.0016493056,-0.0000868056,-0.1745334201
558967.8700241710,-0.0851440430,0.0030517578,9.7817993167,0.0010308160,-0.0000434028,-0.1745334201
558967.8800241710,-0.0880432129,0.0030517578,9.7808837894,0.0019639757,-0.0001085069,-0.1745551215
558967.8900241710,-0.0883483887,-0.0000000000,9.7813415531,0.0008463542,-0.0000651042,-0.1745334201
558967.9000241710,-0.0862121582,0.0065612793,9.7810363773,0.0019748264,-0.0000759549,-0.1745876736
558967.9100241710,-0.0852966309,-0.0018310547,9.7813415531,0.0009440104,-0.0000651042,-0.1745225694
558967.9200241710,-0.0871276855,0.0070190430,9.7813415531,0.0017361111,-0.0000868056,-0.1745659722
558967.9300241710,-0.0891113281,-0.0022888184,9.7813415531,0.0012369792,-0.0000868056,-0.1745334201
558967.9400241710,-0.0868225098,0.0051879883,9.7819519046,0.0014756944,-0.0000651042,-0.1745768229
558967.9500241710,-0.0852966309,-0.0006103516,9.7817993167,0.0015299479,-0.0000759549,-0.1745442708
558967.9600241720,-0.0851440430,0.0056457520,9.7811889652,0.0011284722,-0.0000434028,-0.1745876736
558967.9700241720,-0.0886535645,0.0001525879,9.7817993167,0.0017903646,-0.0001193576,-0.1745551215
558967.9800241720,-0.0880432129,0.0016784668,9.7811889652,0.0008897569,-0.0000868056,-0.1744574653
558967.9900241720,-0.0859069824,0.0054931641,9.7814941409,0.0019965278,-0.0000542535,-0.1744900174
558968.0000241720,-0.0860595703,-0.0003051758,9.7816467288,0.0008572049,-0.0000434028,-0.1745117187
558968.0100241720,-0.0886535645,0.0054931641,9.7810363773,0.0018771701,-0.0001085069,-0.1748046875
558968.0200241720,-0.0885009766,-0.0036621094,9.7814941409,0.0011176215,-0.0000759549,-0.1745659722
558968.0300241720,-0.0859069824,0.0073242188,9.7814941409,0.0015625000,-0.0000759549,-0.1745551215
558968.0400241720,-0.0860595703,0.0001525879,9.7817993167,0.0013888889,-0.0000542535,-0.1745768229
558968.0500241719,-0.0875854492,0.0039672852,9.7813415531,0.0012369792,-0.0000759549,-0.1745768229
558968.0600241720,-0.0883483887,-0.0007629395,9.7813415531,0.0017361111,-0.0001193576,-0.1745985243
558968.0700241720,-0.0859069824,0.0035095215,9.7816467288,0.0010199653,-0.0000651042,-0.1745659722
558968.0800241720,-0.0865173340,0.0048828125,9.7814941409,0.0019639757,-0.0000651042,-0.1745551215
558968.0900241720,-0.0869750977,-0.0015258789,9.7810363773,0.0007812500,-0.0000434028,-0.1745551215
558968.1000241720,-0.0877380371,0.0047302246,9.7810363773,0.0019314236,-0.0000868056,-0.1745659722
558968.1100241720,-0.0868225098,-0.0018310547,9.7821044925,0.0009765625,-0.0001085069,-0.1745008680
558968.1200241720,-0.0865173340,0.0074768066,9.7822570804,0.0017035590,-0.0000542535,-0.1744683160
558968.1300241720,-0.0872802734,-0.0019836426,9.7817993167,0.0013671875,-0.0000542535,-0.1744900174
558968.1400241720,-0.0878906250,0.0044250488,9.7813415531,0.0012695312,-0.0000759549,-0.1744683160
558968.1500241720,-0.0874328613,0.0007629395,9.7810363773,0.0018120660,-0.0001302083,-0.1744791667
558968.1600241720,-0.0846862793,0.0027465820,9.7813415531,0.0008789062,-0.0000651042,-0.1746527778
558968.1700241721,-0.0871276855,0.0045776367,9.7810363773,0.0019965278,-0.0000759549,-0.1746961805
558968.1800241719,-0.0859069824,-0.0019836426,9.7817993167,0.0008463542,-0.0000325521,-0.1745876736
558968.1900241720,-0.0885009766,0.0064086914,9.7817993167,0.0019205729,-0.0001302083,-0.1745442708
558968.2000241720,-0.0862121582,-0.0019836426,9.7819519046,0.0010959201,-0.0000651042,-0.1745008680
558968.2100241720,-0.0860595703,0.0071716309,9.7817993167,0.0015516493,-0.0000651042,-0.1745008680
558968.2200241720,-0.0868225098,-0.0010681152,9.7814941409,0.0015407986,-0.0000651042,-0.1744574653
558968.2300241720,-0.0878906250,0.0032043457,9.7811889652,0.0010959201,-0.0000651042,-0.1745442708
558968.2400241720,-0.0869750977,0.0028991699,9.7808837894,0.0018771701,-0.0001302083,-0.1745334201
558968.2500241720,-0.0859069824,0.0010681152,9.7808837894,0.0008572049,-0.0000651042,-0.1745659722
558968.2600241720,-0.0854492188,0.0038146973,9.7814941409,0.0019965278,-0.0000542535,-0.1745334201
558968.2700241720,-0.0881958008,-0.0012207031,9.7817993167,0.0009331597,-0.0000651042,-0.1745768229
558968.2800241720,-0.0875854492,0.0077819824,9.7813415531,0.0018120660,-0.0001085069,-0.1745551215
558968.2900241720,-0.0871276855,-0.0019836426,9.7825622562,0.0011176215,-0.0000759549,-0.1745659722
558968.3000241719,-0.0860595703,0.0044250488,9.7822570804,0.0015516493,-0.0000651042,-0.1745117187
558968.3100241720,-0.0866699219,-0.0003051758,9.7810363773,0.0014648437,-0.0000542535,-0.1745442708
558968.3200241720,-0.0877380371,0.0050354004,9.7811889652,0.0011718750,-0.0000542535,-0.1745225694
558968.3300241720,-0.0881958008,0.0012207031,9.7813415531,0.0018120660,-0.0001302083,-0.1745985243
558968.3400241720,-0.0854492188,0.0004577637,9.7814941409,0.0009114583,-0.0000542535,-0.1745334201
558968.3500241720,-0.0869750977,0.0051879883,9.7813415531,0.0020182292,-0.0000542535,-0.1745117187
558968.3600241720,-0.0883483887,-0.0018310547,9.7816467288,0.0008463542,-0.0000542535,-0.1745117187
558968.3700241720,-0.0883483887,0.0062561035,9.7813415531,0.0018663194,-0.0001302083,-0.1745442708
558968.3800241720,-0.0871276855,-0.0007629395,9.7816467288,0.0011176215,-0.0000868056,-0.1745225694
558968.3900241720,-0.0872802734,0.0053405762,9.7821044925,0.0015407986,-0.0000651042,-0.1744900174
558968.4000241720,-0.0860595703,-0.0007629395,9.7817993167,0.0015516493,-0.0000651042,-0.1744683160
558968.4100241720,-0.0868225098,0.0051879883,9.7804260257,0.0011393229,-0.0000759549,-0.1745225694
558968.4200241721,-0.0874328613,0.0012207031,9.7813415531,0.0017578125,-0.0001085069,-0.1745551215
558968.4300241719,-0.0862121582,-0.0003051758,9.7816467288,0.0009765625,-0.0000542535,-0.1745876736
558968.4400241720,-0.0856018066,0.0045776367,9.7808837894,0.0019531250,-0.0000868056,-0.1745442708
558968.4500241720,-0.0863647461,0.0007629395,9.7819519046,0.0008463542,-0.0000759549,-0.1745334201
558968.4600241720,-0.0871276855,0.0045776367,9.7811889652,0.0019097222,-0.0001085069,-0.1745551215
558968.4700241720,-0.0863647461,-0.0035095215,9.7810363773,0.0010416667,-0.0000651042,-0.1745876736
558968.4800241720,-0.0857543945,0.0076293945,9.7825622562,0.0017035590,-0.0000759549,-0.1745334201
558968.4900241720,-0.0871276855,-0.0021362305,9.7808837894,0.0013129340,-0.0000542535,-0.1745225694
558968.5000241720,-0.0877380371,0.0042724609,9.7811889652,0.0012912326,-0.0000759549,-0.1745768229
558968.5100241720,-0.0866699219,0.0004577637,9.7811889652,0.0017252604,-0.0001193576,-0.1745659722
558968.5200241720,-0.0866699219,0.0033569336,9.7817993167,0.0009982639,-0.0000542535,-0.1745659722
558968.5300241720,-0.0865173340,0.0028991699,9.7810363773,0.0019748264,-0.0000976562,-0.1745117187
558968.5400241720,-0.0865173340,-0.0018310547,9.7814941409,0.0008355035,-0.0000434028,-0.1745008680
558968.5500241719,-0.0859069824,0.0062561035,9.7813415531,0.0019856771,-0.0001085069,-0.1745117187
558968.5600241720,-0.0878906250,-0.0027465820,9.7816467288,0.0009765625,-0.0000868056,-0.1744791667
558968.5700241720,-0.0869750977,0.0070190430,9.7816467288,0.0016493056,-0.0000651042,-0.1745117187
558968.5800241720,-0.0865173340,-0.0028991699,9.7808837894,0.0013780382,-0.0000759549,-0.1745551215
558968.5900241720,-0.0860595703,0.0047302246,9.7808837894,0.0012152778,-0.0000759549,-0.1745876736
558968.6000241720,-0.0862121582,0.0015258789,9.7817993167,0.0018663194,-0.0000759549,-0.1745985243
558968.6100241720,-0.0863647461,0.0012207031,9.7821044925,0.0008680556,-0.0000759549,-0.1745551215
558968.6200241720,-0.0860595703,0.0047302246,9.7811889652,0.0020073785,-0.0000759549,-0.1745551215
558968.6300241720,-0.0857543945,-0.0027465820,9.7821044925,0.0008463542,-0.0000651042,-0.1745876736
558968.6400241720,-0.0862121582,0.0059509277,9.7813415531,0.0018663194,-0.0000868056,-0.1745876736
558968.6500241720,-0.0878906250,-0.0018310547,9.7813415531,0.0011393229,-0.0000759549,-0.1745768229
558968.6600241720,-0.0872802734,0.0065612793,9.7819519046,0.0015299479,-0.0000542535,-0.1745442708
558968.6700241721,-0.0865173340,-0.0022888184,9.7814941409,0.0015299479,-0.0000759549,-0.1745334201
558968.6800241719,-0.0849914551,0.0045776367,9.7811889652,0.0011935764,-0.0000651042,-0.1745442708
558968.6900241720,-0.0875854492,0.0021362305,9.7811889652,0.0017903646,-0.0001085069,-0.1745225694
558968.7000241720,-0.0898742676,0.0007629395,9.7811889652,0.0009223090,-0.0000651042,-0.1745008680
558968.7100241720,-0.0866699219,0.0025939941,9.7814941409,0.0019748264,-0.0000976562,-0.1744791667
558968.7200241720,-0.0840759277,-0.0000000000,9.7810363773,0.0009114583,-0.0000434028,-0.1744791667
558968.7300241720,-0.0865173340,0.0068664551,9.7813415531,0.0019097222,-0.0001085069,-0.1745117187
558968.7400241720,-0.0885009766,-0.0028991699,9.7813415531,0.0010850694,-0.0000651042,-0.1745334201
558968.7500241720,-0.0880432129,0.0054931641,9.7814941409,0.0016384549,-0.0000759549,-0.1745768229
558968.7600241720,-0.0845336914,-0.0010681152,9.7810363773,0.0014648437,-0.0000542535,-0.1745551215
558968.7700241720,-0.0856018066,0.0047302246,9.7811889652,0.0010633681,-0.0000651042,-0.1745985243
558968.7800241720,-0.0888061523,0.0010681152,9.7813415531,0.0019097222,-0.0001085069,-0.1745442708
558968.7900241720,-0.0895690918,-0.0013732910,9.7814941409,0.0008463542,-0.0000759549,-0.1745334201
558968.8000241719,-0.0859069824,0.0059509277,9.7813415531,0.0020399306,-0.0001085069,-0.1744683160
558968.8100241720,-0.0846862793,-0.0018310547,9.7813415531,0.0009440104,-0.0000434028,-0.1745008680
558968.8200241720,-0.0886535645,0.0064086914,9.7811889652,0.0017469618,-0.0000651042,-0.1745334201
558968.8300241720,-0.0894165039,-0.0030517578,9.7811889652,0.0013020833,-0.0001085069,-0.1745008680
558968.8400241720,-0.0869750977,0.0062561035,9.7816467288,0.0013671875,-0.0000651042,-0.1744466146
558968.8500241720,-0.0843811035,-0.0000000000,9.7821044925,0.0016384549,-0.0000651042,-0.1744791667
558968.8600241720,-0.0852966309,0.0027465820,9.7814941409,0.0010525174,-0.0000651042,-0.1745008680
558968.8700241720,-0.0889587402,0.0024414063,9.7813415531,0.0018880208,-0.0001085069,-0.1745225694
558968.8800241720,-0.0881958008,-0.0001525879,9.7814941409,0.0009440104,-0.0000542535,-0.1745117187
558968.8900241720,-0.0856018066,0.0048828125,9.7816467288,0.0019205729,-0.0000868056,-0.1745334201
558968.9000241720,-0.0834655762,-0.0009155273,9.7810363773,0.0009114583,-0.0000325521,-0.1745442708
558968.9100241720,-0.0888061523,0.0059509277,9.7810363773,0.0018337674,-0.0000868056,-0.1745442708
558968.9200241721,-0.0883483887,-0.0032043457,9.7814941409,0.0011067708,-0.0000759549,-0.1745659722
558968.9300241719,-0.0857543945,0.0065612793,9.7817993167,0.0016276042,-0.0000868056,-0.1745876736
558968.9400241720,-0.0851440430,-0.0010681152,9.7819519046,0.0014648437,-0.0000759549,-0.1747504340
558968.9500241720,-0.0862121582,0.0036621094,9.7811889652,0.0012044271,-0.0000434028,-0.1747070312
558968.9600241720,-0.0889587402,0.0007629395,9.7808837894,0.0018120660,-0.0000868056,-0.1745876736
558968.9700241720,-0.0860595703,0.0018310547,9.7813415531,0.0009223090,-0.0000868056,-0.1745334201
558968.9800241720,-0.0852966309,0.0039672852,9.7808837894,0.0019965278,-0.0000759549,-0.1744683160
558968.9900241720,-0.0852966309,-0.0019836426,9.7814941409,0.0008897569,-0.0000434028,-0.1744466146
558969.0000241720,-0.0877380371,0.0065612793,9.7810363773,0.0018988715,-0.0001193576,-0.1744791667
558969.0100241720,-0.0871276855,-0.0015258789,9.7817993167,0.0011067708,-0.0000759549,-0.1748046875
558969.0200241720,-0.0851440430,0.0057983398,9.7821044925,0.0015625000,-0.0000651042,-0.1745442708
558969.0300241730,-0.0860595703,-0.0019836426,9.7819519046,0.0014756944,-0.0000759549,-0.1745876736
558969.0400241730,-0.0872802734,0.0048828125,9.7816467288,0.0011393229,-0.0000542535,-0.1745985243
558969.0500241730,-0.0874328613,0.0016784668,9.7813415531,0.0018337674,-0.0001193576,-0.1745876736
558969.0600241730,-0.0865173340,0.0006103516,9.7817993167,0.0009114583,-0.0000542535,-0.1745117187
558969.0700241730,-0.0856018066,0.0035095215,9.7811889652,0.0020073785,-0.0000759549,-0.1745117187
558969.0800241730,-0.0866699219,-0.0009155273,9.7807312015,0.0009114583,-0.0000434028,-0.1745008680
558969.0900241730,-0.0881958008,0.0064086914,9.7811889652,0.0018880208,-0.0001085069,-0.1745008680
558969.1000241730,-0.0862121582,-0.0033569336,9.7810363773,0.0010633681,-0.0000651042,-0.1745008680
558969.1100241730,-0.0849914551,0.0064086914,9.7814941409,0.0016059028,-0.0000651042,-0.1745225694
558969.1200241731,-0.0866699219,-0.0018310547,9.7813415531,0.0014539931,-0.0000759549,-0.1745225694
558969.1300241729,-0.0872802734,0.0038146973,9.7821044925,0.0012044271,-0.0001085069,-0.1745117187
558969.1400241730,-0.0856018066,0.0015258789,9.7811889652,0.0018663194,-0.0001085069,-0.1744683160
558969.1500241730,-0.0849914551,0.0024414063,9.7816467288,0.0009223090,-0.0000542535,-0.1745334201
558969.1600241730,-0.0878906250,0.0038146973,9.7810363773,0.0019748264,-0.0000651042,-0.1745442708
558969.1700241730,-0.0874328613,-0.0027465820,9.7808837894,0.0008572049,-0.0000759549,-0.1746093750
558969.1800241730,-0.0851440430,0.0080871582,9.7814941409,0.0018663194,-0.0000759549,-0.1746093750
558969.1900241730,-0.0843811035,-0.0013732910,9.7814941409,0.0012369792,-0.0000542535,-0.1745985243
558969.2000241730,-0.0874328613,0.0050354004,9.7814941409,0.0013671875,-0.0000542535,-0.1745876736
558969.2100241730,-0.0885009766,-0.0010681152,9.7819519046,0.0017144097,-0.0000868056,-0.1745442708
558969.2200241730,-0.0846862793,0.0028991699,9.7821044925,0.0009657118,-0.0000868056,-0.1745442708
558969.2300241730,-0.0859069824,0.0039672852,9.7811889652,0.0019856771,-0.0001085069,-0.1745442708
558969.2400241731,-0.0854492188,-0.0012207031,9.7810363773,0.0008246528,-0.0000542535,-0.1745551215
558969.2500241729,-0.0872802734,0.0053405762,9.7813415531,0.0019639757,-0.0001193576,-0.1745117187
558969.2600241730,-0.0871276855,-0.0030517578,9.7811889652,0.0010525174,-0.0000542535,-0.1745334201
558969.2700241730,-0.0854492188,0.0070190430,9.7814941409,0.0016601562,-0.0001085069,-0.1745225694
558969.2800241730,-0.0856018066,-0.0013732910,9.7810363773,0.0014322917,-0.0000651042,-0.1745225694
558969.2900241730,-0.0874328613,0.0041198730,9.7814941409,0.0012695312,-0.0000651042,-0.1745225694
558969.3000241730,-0.0875854492,-0.0001525879,9.7825622562,0.0017144097,-0.0000868056,-0.1744574653
558969.3100241730,-0.0863647461,0.0024414063,9.7814941409,0.0010091146,-0.0000759549,-0.1745334201
558969.3200241730,-0.0862121582,0.0038146973,9.7808837894,0.0018988715,-0.0000868056,-0.1745985243
558969.3300241730,-0.0872802734,-0.0003051758,9.7821044925,0.0008897569,-0.0000651042,-0.1745768229
558969.3400241730,-0.0871276855,0.0025939941,9.7817993167,0.0020073785,-0.0000759549,-0.1745659722
558969.3500241730,-0.0854492188,-0.0001525879,9.7816467288,0.0009440104,-0.0000759549,-0.1745768229
558969.3600241730,-0.0857543945,0.0073242188,9.7813415531,0.0017795139,-0.0000759549,-0.1745876736
558969.3700241731,-0.0872802734,-0.0036621094,9.7814941409,0.0012152778,-0.0001085069,-0.1745442708
558969.3800241729,-0.0874328613,0.0035095215,9.7814941409,0.0014431424,-0.0000868056,-0.1744683160
558969.3900241730,-0.0856018066,0.0001525879,9.7811889652,0.0016493056,-0.0000651042,-0.1745117187
558969.4000241730,-0.0863647461,0.0044250488,9.7819519046,0.0010633681,-0.0000651042,-0.1744791667
558969.4100241730,-0.0871276855,0.0015258789,9.7816467288,0.0018988715,-0.0000868056,-0.1745008680
558969.4200241730,-0.0859069824,-0.0016784668,9.7814941409,0.0009114583,-0.0000759549,-0.1745334201
558969.4300241730,-0.0848388672,0.0054931641,9.7813415531,0.0020073785,-0.0000759549,-0.1745225694
558969.4400241730,-0.0868225098,-0.0012207031,9.7814941409,0.0008789062,-0.0000542535,-0.1746202257
558969.4500241730,-0.0878906250,0.0054931641,9.7811889652,0.0018229167,-0.0000868056,-0.1746202257
558969.4600241730,-0.0875854492,-0.0033569336,9.7817993167,0.0012152778,-0.0000759549,-0.1745334201
558969.4700241730,-0.0856018066,0.0062561035,9.7813415531,0.0015190972,-0.0000759549,-0.1745551215
558969.4800241730,-0.0863647461,-0.0003051758,9.7813415531,0.0015190972,-0.0000542535,-0.1745442708
558969.4900241731,-0.0851440430,0.0035095215,9.7813415531,0.0011284722,-0.0000868056,-0.1745659722
558969.5000241729,-0.0871276855,0.0001525879,9.7814941409,0.0018120660,-0.0000868056,-0.1745551215
558969.5100241730,-0.0869750977,0.0010681152,9.7816467288,0.0009440104,-0.0000651042,-0.1745442708
558969.5200241730,-0.0859069824,0.0053405762,9.7811889652,0.0019748264,-0.0000759549,-0.1745334201
558969.5300241730,-0.0852966309,-0.0022888184,9.7821044925,0.0008680556,-0.0000542535,-0.1744900174
558969.5400241730,-0.0851440430,0.0045776367,9.7816467288,0.0019314236,-0.0000976562,-0.1744574653
558969.5500241730,-0.0852966309,-0.0024414063,9.7814941409,0.0011284722,-0.0000868056,-0.1745225694
558969.5600241730,-0.0869750977,0.0077819824,9.7816467288,0.0015516493,-0.0000759549,-0.1745551215
558969.5700241730,-0.0878906250,-0.0009155273,9.7813415531,0.0015299479,-0.0000651042,-0.1745551215
558969.5800241730,-0.0869750977,0.0018310547,9.7810363773,0.0010959201,-0.0000651042,-0.1745876736
558969.5900241730,-0.0863647461,0.0021362305,9.7813415531,0.0019314236,-0.0001193576,-0.1746093750
558969.6000241730,-0.0859069824,0.0015258789,9.7811889652,0.0008789062,-0.0000434028,-0.1745985243
558969.6100241730,-0.0871276855,0.0053405762,9.7813415531,0.0019856771,-0.0000759549,-0.1745985243
558969.6200241731,-0.0872802734,-0.0033569336,9.7810363773,0.0009114583,-0.0000542535,-0.1745225694
558969.6300241729,-0.0866699219,0.0050354004,9.7813415531,0.0018337674,-0.0000759549,-0.1745551215
558969.6400241730,-0.0854492188,-0.0004577637,9.7810363773,0.0011393229,-0.0000759549,-0.1745659722
558969.6500241730,-0.0865173340,0.0064086914,9.7819519046,0.0015299479,-0.0000759549,-0.1745334201
558969.6600241730,-0.0856018066,-0.0025939941,9.7816467288,0.0014865451,-0.0000651042,-0.1745442708
558969.6700241730,-0.0869750977,0.0033569336,9.7821044925,0.0012261285,-0.0000651042,-0.1745225694
558969.6800241730,-0.0872802734,0.0012207031,9.7813415531,0.0017903646,-0.0000868056,-0.1745551215
558969.6900241730,-0.0865173340,0.0013732910,9.7816467288,0.0009223090,-0.0000759549,-0.1745117187
558969.7000241730,-0.0866699219,0.0035095215,9.7813415531,0.0020073785,-0.0000759549,-0.1745225694
558969.7100241730,-0.0857543945,-0.0018310547,9.7816467288,0.0008680556,-0.0000542535,-0.1747504340
558969.7200241730,-0.0868225098,0.0068664551,9.7813415531,0.0018880208,-0.0001085069,-0.1746961805
558969.7300241730,-0.0869750977,-0.0027465820,9.7813415531,0.0011393229,-0.0000651042,-0.1745985243
558969.7400241731,-0.0851440430,0.0051879883,9.7810363773,0.0015842014,-0.0000542535,-0.1745768229
558969.7500241729,-0.0859069824,-0.0019836426,9.7808837894,0.0015299479,-0.0000759549,-0.1745334201
558969.7600241730,-0.0865173340,0.0042724609,9.7824096683,0.0010959201,-0.0000542535,-0.1745225694
558969.7700241730,-0.0881958008,0.0012207031,9.7813415531,0.0018663194,-0.0001193576,-0.1745551215
558969.7800241730,-0.0871276855,-0.0000000000,9.7808837894,0.0008897569,-0.0000651042,-0.1745442708
558969.7900241730,-0.0860595703,0.0044250488,9.7813415531,0.0020073785,-0.0000759549,-0.1745551215
558969.8000241730,-0.0849914551,-0.0001525879,9.7813415531,0.0009440104,-0.0000651042,-0.1745442708
558969.8100241730,-0.0860595703,0.0053405762,9.7814941409,0.0018663194,-0.0001085069,-0.1745225694
558969.8200241730,-0.0871276855,-0.0032043457,9.7813415531,0.0011067708,-0.0000651042,-0.1745117187
558969.8300241730,-0.0856018066,0.0054931641,9.7811889652,0.0016384549,-0.0000759549,-0.1745225694
558969.8400241730,-0.0860595703,-0.0007629395,9.7813415531,0.0013671875,-0.0000542535,-0.1745334201
558969.8500241730,-0.0872802734,0.0048828125,9.7817993167,0.0012803819,-0.0000651042,-0.1745442708
558969.8600241730,-0.0877380371,-0.0000000000,9.7814941409,0.0017903646,-0.0001193576,-0.1745334201
558969.8700241731,-0.0866699219,0.0016784668,9.7811889652,0.0009548611,-0.0000651042,-0.1745659722
558969.8800241729,-0.0849914551,0.0047302246,9.7817993167,0.0020182292,-0.0000759549,-0.1745334201
558969.8900241730,-0.0854492188,-0.0019836426,9.7810363773,0.0008246528,-0.0000434028,-0.1745334201
558969.9000241730,-0.0865173340,0.0048828125,9.7816467288,0.0019205729,-0.0000868056,-0.1745659722
558969.9100241730,-0.0852966309,-0.0015258789,9.7813415531,0.0010959201,-0.0000651042,-0.1745768229
558969.9200241730,-0.0871276855,0.0064086914,9.7813415531,0.0015733507,-0.0000759549,-0.1745768229
558969.9300241730,-0.0868225098,-0.0025939941,9.7813415531,0.0014756944,-0.0000759549,-0.1745442708
558969.9400241730,-0.0857543945,0.0039672852,9.7817993167,0.0012261285,-0.0000759549,-0.1745008680
558969.9500241730,-0.0872802734,0.0009155273,9.7816467288,0.0018446181,-0.0001085069,-0.1744574653
558969.9600241730,-0.0848388672,0.0015258789,9.7819519046,0.0008789062,-0.0000325521,-0.1744791667
558969.9700241730,-0.0866699219,0.0036621094,9.7810363773,0.0020182292,-0.0001085069,-0.1744791667
558969.9800241730,-0.0854492188,-0.0027465820,9.7814941409,0.0008680556,-0.0000542535,-0.1745117187
558969.9900241731,-0.0860595703,0.0068664551,9.7817993167,0.0018771701,-0.0000868056,-0.1745334201
558970.0000241729,-0.0856018066,-0.0024414063,9.7811889652,0.0012152778,-0.0000759549,-0.1745659722
558970.0100241730,-0.0868225098,0.0047302246,9.7817993167,0.0014865451,-0.0000542535,-0.1747938368
558970.0200241730,-0.0863647461,-0.0015258789,9.7810363773,0.0016384549,-0.0000759549,-0.1745659722
558970.0300241730,-0.0849914551,0.0038146973,9.7814941409,0.0010416667,-0.0000759549,-0.1745659722
558970.0400241730,-0.0869750977,0.0028991699,9.7814941409,0.0018988715,-0.0000759549,-0.1745117187
558970.0500241730,-0.0877380371,-0.0009155273,9.7810363773,0.0008680556,-0.0000651042,-0.1745008680
558970.0600241730,-0.0866699219,0.0042724609,9.7810363773,0.0020399306,-0.0000759549,-0.1744574653
558970.0700241730,-0.0842285156,-0.0018310547,9.7817993167,0.0009657118,-0.0000325521,-0.1745334201
558970.0800241730,-0.0854492188,0.0079345703,9.7814941409,0.0017903646,-0.0000759549,-0.1745442708
