t(s),acc_x,acc_y,acc_z,gyro_x,gyro_y,gyro_z
559086.0000242810,0.0700378418,-0.0025939941,-9.8143005374,-0.0002929687,0.0000217014,-0.0000325521
559086.0100242810,0.0669860840,-0.0042724609,-9.8146057132,0.0001085069,-0.0000325521,-0.0000325521
559086.0200242810,0.0675964355,-0.0045776367,-9.8146057132,-0.0002387153,0.0000217014,-0.0000325521
559086.0300242810,0.0677490234,-0.0042724609,-9.8141479495,0.0001302083,-0.0000000000,-0.0000434028
559086.0400242810,0.0691223145,-0.0041198730,-9.8141479495,-0.0002495660,0.0000217014,-0.0000434028
559086.0500242810,0.0688171387,-0.0047302246,-9.8146057132,0.0000868056,-0.0000434028,-0.0000434028
559086.0600242810,0.0660705566,-0.0053405762,-9.8147583011,-0.0002061632,0.0000217014,-0.0000217014
559086.0700242820,0.0675964355,-0.0025939941,-9.8144531253,0.0000217014,-0.0000000000,-0.0000325521
559086.0800242820,0.0701904297,-0.0057983398,-9.8141479495,-0.0001844618,0.0000108507,-0.0000325521
559086.0900242820,0.0675964355,-0.0025939941,-9.8149108890,0.0000976562,-0.0000325521,-0.0000325521
559086.1000242820,0.0663757324,-0.0044250488,-9.8143005374,-0.0002061632,0.0000217014,-0.0000325521
559086.1100242820,0.0669860840,-0.0041198730,-9.8150634769,0.0000651042,-0.0000542535,-0.0000434028
559086.1200242820,0.0685119629,-0.0041198730,-9.8135375980,-0.0002387153,0.0000325521,-0.0000325521
559086.1300242820,0.0672912598,-0.0025939941,-9.8141479495,0.0000976562,-0.0000542535,-0.0000217014
559086.1400242820,0.0668334961,-0.0054931641,-9.8147583011,-0.0002387153,0.0000325521,-0.0000434028
559086.1500242820,0.0671386719,-0.0045776367,-9.8144531253,0.0001193576,-0.0000325521,-0.0000108507
559086.1600242821,0.0688171387,-0.0027465820,-9.8149108890,-0.0002061632,0.0000434028,-0.0000434028
559086.1700242819,0.0689697266,-0.0032043457,-9.8149108890,0.0001193576,-0.0000325521,-0.0000325521
559086.1800242820,0.0669860840,-0.0057983398,-9.8143005374,-0.0002495660,0.0000108507,-0.0000434028
559086.1900242820,0.0668334961,-0.0044250488,-9.8146057132,0.0000868056,-0.0000000000,-0.0000434028
559086.2000242820,0.0686645508,-0.0035095215,-9.8143005374,-0.0002712674,0.0000108507,-0.0000325521
559086.2100242820,0.0680541992,-0.0036621094,-9.8141479495,0.0001519097,-0.0000325521,-0.0000108507
559086.2200242820,0.0679016113,-0.0048828125,-9.8146057132,-0.0002929687,0.0000217014,-0.0000325521
559086.2300242820,0.0666809082,-0.0050354004,-9.8143005374,0.0001519097,-0.0000000000,-0.0000108507
559086.2400242820,0.0692749023,-0.0019836426,-9.8144531253,-0.0002821181,0.0000325521,-0.0000434028
559086.2500242820,0.0683593750,-0.0044250488,-9.8146057132,0.0001519097,-0.0000325521,-0.0000434028
559086.2600242820,0.0675964355,-0.0030517578,-9.8146057132,-0.0003255208,0.0000217014,-0.0000434028
559086.2700242820,0.0666809082,-0.0062561035,-9.8139953616,0.0001844618,-0.0000000000,-0.0000108507
559086.2800242821,0.0692749023,-0.0010681152,-9.8146057132,-0.0003146701,0.0000108507,-0.0000217014
559086.2900242819,0.0686645508,-0.0062561035,-9.8144531253,0.0002170139,-0.0000325521,-0.0000434028
559086.3000242820,0.0679016113,-0.0024414063,-9.8147583011,-0.0003580729,0.0000217014,-0.0000434028
559086.3100242820,0.0662231445,-0.0073242188,-9.8139953616,0.0001953125,-0.0000108507,-0.0000434028
559086.3200242820,0.0688171387,0.0001525879,-9.8153686527,-0.0003038194,0.0000217014,-0.0000325521
559086.3300242820,0.0680541992,-0.0064086914,-9.8143005374,0.0001519097,-0.0000108507,-0.0000325521
559086.3400242820,0.0662231445,-0.0033569336,-9.8146057132,-0.0003146701,0.0000108507,-0.0000217014
559086.3500242820,0.0671386719,-0.0059509277,-9.8141479495,0.0001736111,-0.0000000000,0.0000000000
559086.3600242820,0.0686645508,-0.0015258789,-9.8141479495,-0.0003146701,0.0000108507,-0.0000542535
559086.3700242820,0.0686645508,-0.0068664551,-9.8146057132,0.0002604167,-0.0000434028,-0.0000108507
559086.3800242820,0.0675964355,-0.0027465820,-9.8149108890,-0.0003797743,0.0000434028,-0.0000434028
559086.3900242820,0.0668334961,-0.0065612793,-9.8144531253,0.0001844618,-0.0000000000,-0.0000325521
559086.4000242820,0.0688171387,-0.0007629395,-9.8144531253,-0.0003038194,0.0000108507,-0.0000325521
559086.4100242821,0.0682067871,-0.0061035156,-9.8144531253,0.0001953125,-0.0000000000,-0.0000108507
559086.4200242819,0.0675964355,-0.0028991699,-9.8143005374,-0.0003146701,0.0000108507,-0.0000542535
559086.4300242820,0.0665283203,-0.0059509277,-9.8147583011,0.0001736111,-0.0000000000,-0.0000542535
559086.4400242820,0.0695800781,-0.0012207031,-9.8141479495,-0.0003038194,0.0000325521,-0.0000217014
559086.4500242820,0.0679016113,-0.0068664551,-9.8139953616,0.0001736111,-0.0000108507,-0.0000434028
559086.4600242820,0.0672912598,-0.0025939941,-9.8152160648,-0.0003255208,0.0000108507,-0.0000108507
559086.4700242820,0.0677490234,-0.0054931641,-9.8147583011,0.0001519097,0.0000108507,-0.0000325521
559086.4800242820,0.0686645508,-0.0015258789,-9.8146057132,-0.0003038194,-0.0000000000,-0.0000217014
559086.4900242820,0.0675964355,-0.0068664551,-9.8138427738,0.0002170139,-0.0000000000,-0.0000434028
559086.5000242820,0.0666809082,-0.0022888184,-9.8146057132,-0.0003255208,-0.0000000000,-0.0000325521
559086.5100242820,0.0671386719,-0.0064086914,-9.8141479495,0.0001953125,-0.0000000000,-0.0000325521
559086.5200242820,0.0683593750,-0.0003051758,-9.8147583011,-0.0003255208,0.0000108507,-0.0000217014
559086.5300242821,0.0669860840,-0.0082397461,-9.8138427738,0.0001844618,-0.0000000000,-0.0000108507
559086.5400242819,0.0674438477,-0.0018310547,-9.8146057132,-0.0003255208,-0.0000000000,-0.0000325521
559086.5500242820,0.0660705566,-0.0068664551,-9.8146057132,0.0001736111,0.0000108507,-0.0000325521
559086.5600242820,0.0686645508,0.0004577637,-9.8149108890,-0.0002929687,-0.0000108507,-0.0000434028
559086.5700242820,0.0691223145,-0.0086975098,-9.8138427738,0.0001736111,0.0000325521,-0.0000434028
559086.5800242820,0.0671386719,-0.0001525879,-9.8141479495,-0.0002495660,-0.0000542535,-0.0000325521
559086.5900242820,0.0668334961,-0.0073242188,-9.8144531253,0.0000434028,0.0000542535,-0.0000325521
559086.6000242820,0.0672912598,-0.0007629395,-9.8141479495,-0.0001410590,-0.0000325521,-0.0000325521
559086.6100242820,0.0682067871,-0.0076293945,-9.8141479495,0.0000000000,0.0000217014,-0.0000325521
559086.6200242820,0.0689697266,-0.0012207031,-9.8147583011,-0.0000651042,-0.0000651042,-0.0000434028
559086.6300242820,0.0671386719,-0.0067138672,-9.8146057132,-0.0000434028,0.0000434028,-0.0000542535
559086.6400242820,0.0677490234,-0.0015258789,-9.8146057132,-0.0000108507,-0.0000542535,-0.0000434028
559086.6500242820,0.0682067871,-0.0064086914,-9.8143005374,-0.0001410590,0.0000325521,-0.0000217014
559086.6600242821,0.0666809082,-0.0035095215,-9.8141479495,0.0000542535,-0.0000434028,-0.0000325521
559086.6700242819,0.0666809082,-0.0036621094,-9.8149108890,-0.0002278646,0.0000325521,-0.0000325521
559086.6800242820,0.0675964355,-0.0048828125,-9.8141479495,0.0001193576,-0.0000325521,-0.0000325521
559086.6900242820,0.0680541992,-0.0041198730,-9.8146057132,-0.0002929687,0.0000217014,-0.0000434028
559086.7000242820,0.0674438477,-0.0050354004,-9.8149108890,0.0001736111,-0.0000108507,-0.0000325521
559086.7100242820,0.0680541992,-0.0022888184,-9.8141479495,-0.0002929687,0.0000108507,-0.0000542535
559086.7200242820,0.0675964355,-0.0054931641,-9.8143005374,0.0001519097,0.0000217014,-0.0000325521
559086.7300242820,0.0677490234,-0.0025939941,-9.8144531253,-0.0003689236,-0.0000325521,-0.0000325521
559086.7400242820,0.0679016113,-0.0070190430,-9.8143005374,0.0001953125,0.0000217014,-0.0000434028
559086.7500242820,0.0679016113,-0.0000000000,-9.8144531253,-0.0002929687,-0.0000542535,-0.0000325521
559086.7600242820,0.0672912598,-0.0086975098,-9.8139953616,0.0001410590,0.0000325521,-0.0000108507
559086.7700242820,0.0683593750,-0.0000000000,-9.8149108890,-0.0001519097,-0.0000434028,-0.0000434028
559086.7800242821,0.0677490234,-0.0076293945,-9.8139953616,-0.0000542535,0.0000542535,-0.0000325521
559086.7900242819,0.0668334961,-0.0022888184,-9.8149108890,0.0000217014,-0.0000759549,-0.0000434028
559086.8000242820,0.0679016113,-0.0053405762,-9.8144531253,-0.0002278646,0.0000868056,-0.0000325521
559086.8100242820,0.0688171387,-0.0048828125,-9.8147583011,0.0001844618,-0.0000759549,-0.0000108507
559086.8200242820,0.0692749023,-0.0022888184,-9.8144531253,-0.0003255208,0.0000759549,-0.0000434028
559086.8300242820,0.0671386719,-0.0059509277,-9.8147583011,0.0001953125,-0.0000542535,-0.0000434028
559086.8400242820,0.0669860840,-0.0016784668,-9.8138427738,-0.0003255208,0.0000759549,-0.0000434028
559086.8500242820,0.0677490234,-0.0070190430,-9.8146057132,0.0000976562,-0.0000542535,-0.0000217014
559086.8600242820,0.0688171387,-0.0004577637,-9.8149108890,-0.0002278646,0.0000434028,-0.0000325521
559086.8700242820,0.0671386719,-0.0076293945,-9.8133850101,0.0000325521,-0.0000434028,-0.0000325521
559086.8800242820,0.0682067871,-0.0025939941,-9.8149108890,-0.0000108507,0.0000108507,-0.0000325521
559086.8900242820,0.0679016113,-0.0048828125,-9.8150634769,-0.0002061632,-0.0000000000,-0.0000325521
559086.9000242820,0.0686645508,-0.0044250488,-9.8135375980,0.0001410590,-0.0000000000,-0.0000325521
559086.9100242821,0.0663757324,-0.0030517578,-9.8146057132,-0.0002929687,0.0000108507,-0.0000434028
559086.9200242819,0.0679016113,-0.0061035156,-9.8150634769,0.0000868056,0.0000108507,-0.0000217014
559086.9300242820,0.0688171387,-0.0007629395,-9.8141479495,-0.0002712674,-0.0000434028,-0.0000542535
559086.9400242820,0.0688171387,-0.0079345703,-9.8139953616,0.0000976562,0.0000108507,-0.0000434028
559086.9500242820,0.0680541992,-0.0004577637,-9.8152160648,-0.0000434028,-0.0000108507,-0.0000325521
559086.9600242820,0.0665283203,-0.0064086914,-9.8141479495,-0.0001302083,0.0000434028,-0.0000325521
559086.9700242820,0.0677490234,-0.0054931641,-9.8139953616,0.0000976562,-0.0000434028,-0.0000217014
559086.9800242820,0.0686645508,-0.0015258789,-9.8147583011,-0.0002929687,0.0000434028,-0.0000325521
559086.9900242820,0.0682067871,-0.0059509277,-9.8146057132,0.0000542535,-0.0000651042,-0.0000325521
559087.0000242820,0.0668334961,-0.0028991699,-9.8144531253,-0.0000434028,0.0000434028,-0.0000325521
559087.0100242820,0.0675964355,-0.0042724609,-9.8146057132,-0.0001627604,-0.0000325521,-0.0000434028
559087.0200242820,0.0688171387,-0.0057983398,-9.8143005374,0.0000434028,0.0000217014,-0.0000434028
559087.0300242821,0.0679016113,-0.0021362305,-9.8141479495,-0.0000325521,-0.0000434028,-0.0000434028
559087.0400242819,0.0668334961,-0.0044250488,-9.8144531253,-0.0001627604,0.0000434028,-0.0000434028
559087.0500242820,0.0675964355,-0.0056457520,-9.8144531253,0.0000000000,-0.0000325521,-0.0000217014
559087.0600242820,0.0691223145,-0.0018310547,-9.8143005374,-0.0000759549,0.0000217014,-0.0000434028
559087.0700242820,0.0679016113,-0.0036621094,-9.8143005374,-0.0001193576,-0.0000434028,-0.0000217014
559087.0800242820,0.0675964355,-0.0056457520,-9.8150634769,-0.0000108507,0.0000325521,-0.0000325521
559087.0900242820,0.0668334961,-0.0042724609,-9.8139953616,-0.0000542535,-0.0000325521,-0.0000325521
559087.1000242820,0.0700378418,-0.0030517578,-9.8129272464,-0.0001302083,0.0000651042,-0.0000434028
559087.1100242820,0.0675964355,-0.0045776367,-9.8149108890,-0.0000108507,-0.0000759549,-0.0000325521
559087.1200242820,0.0653076172,-0.0038146973,-9.8147583011,-0.0000542535,0.0000434028,-0.0000434028
559087.1300242820,0.0677490234,-0.0036621094,-9.8141479495,-0.0001410590,-0.0000325521,-0.0000325521
559087.1400242830,0.0701904297,-0.0045776367,-9.8143005374,-0.0000325521,0.0000325521,-0.0000434028
559087.1500242830,0.0682067871,-0.0025939941,-9.8146057132,-0.0000434028,-0.0000868056,-0.0000434028
559087.1600242830,0.0653076172,-0.0047302246,-9.8139953616,-0.0000759549,0.0000434028,-0.0000217014
559087.1700242830,0.0682067871,-0.0057983398,-9.8144531253,-0.0000542535,-0.0000108507,-0.0000325521
559087.1800242830,0.0701904297,-0.0032043457,-9.8146057132,-0.0000651042,0.0000217014,-0.0000325521
559087.1900242830,0.0685119629,-0.0035095215,-9.8139953616,-0.0000759549,-0.0000434028,-0.0000434028
559087.2000242830,0.0650024414,-0.0053405762,-9.8143005374,-0.0000434028,0.0000325521,-0.0000217014
559087.2100242830,0.0669860840,-0.0038146973,-9.8146057132,-0.0000542535,-0.0000000000,-0.0000434028
559087.2200242830,0.0703430176,-0.0030517578,-9.8147583011,-0.0000651042,0.0000217014,-0.0000325521
559087.2300242831,0.0688171387,-0.0039672852,-9.8147583011,-0.0000325521,-0.0000651042,-0.0000325521
559087.2400242829,0.0656127930,-0.0045776367,-9.8144531253,-0.0000542535,0.0000325521,-0.0000217014
559087.2500242830,0.0677490234,-0.0047302246,-9.8147583011,-0.0000976562,-0.0000000000,-0.0000325521
559087.2600242830,0.0694274902,-0.0033569336,-9.8146057132,-0.0000651042,0.0000217014,-0.0000325521
559087.2700242830,0.0679016113,-0.0028991699,-9.8144531253,-0.0000542535,-0.0000434028,-0.0000434028
559087.2800242830,0.0654602051,-0.0047302246,-9.8147583011,-0.0000542535,0.0000217014,-0.0000434028
559087.2900242830,0.0672912598,-0.0053405762,-9.8146057132,-0.0000542535,-0.0000000000,-0.0000325521
559087.3000242830,0.0697326660,-0.0030517578,-9.8141479495,-0.0000542535,0.0000108507,-0.0000325521
559087.3100242830,0.0688171387,-0.0039672852,-9.8143005374,-0.0000651042,-0.0000542535,-0.0000217014
559087.3200242830,0.0654602051,-0.0044250488,-9.8152160648,-0.0000651042,0.0000325521,-0.0000325521
559087.3300242830,0.0675964355,-0.0045776367,-9.8143005374,-0.0000759549,-0.0000000000,-0.0000434028
559087.3400242830,0.0709533691,-0.0035095215,-9.8146057132,-0.0000651042,0.0000108507,-0.0000325521
559087.3500242830,0.0686645508,-0.0035095215,-9.8152160648,-0.0000325521,-0.0000542535,-0.0000325521
559087.3600242831,0.0656127930,-0.0045776367,-9.8149108890,-0.0000542535,0.0000325521,-0.0000325521
559087.3700242830,0.0682067871,-0.0041198730,-9.8147583011,-0.0000651042,-0.0000000000,-0.0000434028
559087.3800242830,0.0712585449,-0.0036621094,-9.8138427738,-0.0000542535,0.0000325521,-0.0000217014
559087.3900242830,0.0679016113,-0.0041198730,-9.8146057132,-0.0000651042,-0.0000542535,-0.0000325521
559087.4000242830,0.0642395020,-0.0048828125,-9.8138427738,-0.0000651042,0.0000325521,-0.0000434028
559087.4100242830,0.0672912598,-0.0042724609,-9.8144531253,-0.0000325521,-0.0000000000,-0.0000325521
559087.4200242830,0.0709533691,-0.0033569336,-9.8144531253,-0.0000434028,0.0000217014,-0.0000434028
559087.4300242830,0.0682067871,-0.0036621094,-9.8146057132,-0.0000542535,-0.0000651042,-0.0000217014
559087.4400242830,0.0659179688,-0.0047302246,-9.8143005374,-0.0000542535,0.0000325521,-0.0000325521
559087.4500242830,0.0659179688,-0.0033569336,-9.8147583011,-0.0000976562,-0.0000000000,-0.0000325521
559087.4600242830,0.0714111328,-0.0041198730,-9.8146057132,-0.0000651042,0.0000325521,-0.0000217014
559087.4700242830,0.0688171387,-0.0038146973,-9.8144531253,-0.0000542535,-0.0000651042,-0.0000434028
559087.4800242831,0.0646972656,-0.0048828125,-9.8149108890,-0.0000651042,0.0000217014,-0.0000434028
559087.4900242829,0.0669860840,-0.0045776367,-9.8146057132,-0.0000651042,-0.0000000000,-0.0000325521
559087.5000242830,0.0708007813,-0.0035095215,-9.8144531253,-0.0000325521,0.0000108507,-0.0000325521
559087.5100242830,0.0691223145,-0.0036621094,-9.8141479495,-0.0000976562,-0.0000434028,-0.0000325521
559087.5200242830,0.0659179688,-0.0047302246,-9.8139953616,-0.0000651042,0.0000108507,-0.0000434028
559087.5300242830,0.0674438477,-0.0047302246,-9.8144531253,-0.0000542535,-0.0000108507,-0.0000217014
559087.5400242830,0.0694274902,-0.0030517578,-9.8141479495,-0.0000651042,0.0000434028,-0.0000434028
559087.5500242830,0.0694274902,-0.0041198730,-9.8149108890,-0.0000542535,-0.0000651042,-0.0000325521
559087.5600242830,0.0662231445,-0.0042724609,-9.8141479495,-0.0000217014,0.0000434028,-0.0000434028
559087.5700242830,0.0674438477,-0.0042724609,-9.8139953616,-0.0000976562,-0.0000108507,-0.0000325521
559087.5800242830,0.0688171387,-0.0044250488,-9.8147583011,-0.0000759549,0.0000434028,-0.0000325521
559087.5900242830,0.0695800781,-0.0042724609,-9.8146057132,-0.0000542535,-0.0000542535,-0.0000434028
559087.6000242830,0.0663757324,-0.0044250488,-9.8143005374,-0.0000542535,0.0000434028,-0.0000325521
559087.6100242831,0.0668334961,-0.0051879883,-9.8146057132,-0.0000651042,-0.0000325521,-0.0000325521
559087.6200242830,0.0704956055,-0.0039672852,-9.8146057132,-0.0000434028,0.0000434028,-0.0000325521
559087.6300242830,0.0689697266,-0.0032043457,-9.8141479495,-0.0000434028,-0.0000542535,-0.0000434028
559087.6400242830,0.0672912598,-0.0042724609,-9.8141479495,-0.0000651042,0.0000325521,-0.0000325521
559087.6500242830,0.0669860840,-0.0039672852,-9.8146057132,-0.0000759549,-0.0000325521,-0.0000325521
559087.6600242830,0.0682067871,-0.0044250488,-9.8143005374,-0.0000651042,0.0000434028,-0.0000325521
559087.6700242830,0.0683593750,-0.0041198730,-9.8141479495,-0.0000651042,-0.0000434028,-0.0000217014
559087.6800242830,0.0680541992,-0.0032043457,-9.8141479495,-0.0000651042,0.0000217014,-0.0000325521
559087.6900242830,0.0665283203,-0.0044250488,-9.8150634769,-0.0000325521,-0.0000434028,-0.0000325521
559087.7000242830,0.0682067871,-0.0048828125,-9.8149108890,-0.0000542535,0.0000434028,-0.0000325521
559087.7100242830,0.0689697266,-0.0041198730,-9.8150634769,-0.0000976562,-0.0000542535,-0.0000325521
559087.7200242830,0.0671386719,-0.0032043457,-9.8143005374,-0.0000434028,0.0000325521,-0.0000217014
559087.7300242831,0.0671386719,-0.0042724609,-9.8144531253,-0.0000651042,-0.0000108507,-0.0000325521
559087.7400242829,0.0689697266,-0.0047302246,-9.8141479495,-0.0000434028,0.0000434028,-0.0000217014
559087.7500242830,0.0683593750,-0.0042724609,-9.8144531253,-0.0000651042,-0.0000434028,-0.0000217014
559087.7600242830,0.0666809082,-0.0039672852,-9.8143005374,-0.0000651042,0.0000325521,-0.0000434028
559087.7700242830,0.0665283203,-0.0042724609,-9.8143005374,-0.0000542535,-0.0000108507,-0.0000325521
559087.7800242830,0.0692749023,-0.0045776367,-9.8144531253,-0.0000542535,0.0000325521,-0.0000325521
559087.7900242830,0.0688171387,-0.0038146973,-9.8147583011,-0.0001085069,-0.0000434028,-0.0000325521
559087.8000242830,0.0668334961,-0.0039672852,-9.8146057132,-0.0000542535,0.0000434028,-0.0000325521
559087.8100242830,0.0674438477,-0.0042724609,-9.8141479495,-0.0000325521,-0.0000325521,-0.0000434028
559087.8200242830,0.0682067871,-0.0044250488,-9.8144531253,-0.0000651042,0.0000325521,-0.0000217014
559087.8300242830,0.0688171387,-0.0045776367,-9.8143005374,-0.0000542535,-0.0000325521,-0.0000542535
559087.8400242830,0.0669860840,-0.0042724609,-9.8143005374,-0.0000651042,0.0000217014,-0.0000325521
559087.8500242830,0.0674438477,-0.0035095215,-9.8143005374,-0.0000542535,-0.0000325521,-0.0000325521
559087.8600242831,0.0672912598,-0.0042724609,-9.8141479495,-0.0000651042,0.0000325521,-0.0000217014
559087.8700242830,0.0674438477,-0.0045776367,-9.8147583011,-0.0000542535,-0.0000434028,-0.0000434028
559087.8800242830,0.0683593750,-0.0033569336,-9.8146057132,-0.0000651042,0.0000325521,-0.0000217014
559087.8900242830,0.0680541992,-0.0048828125,-9.8144531253,-0.0000434028,-0.0000325521,-0.0000434028
559087.9000242830,0.0679016113,-0.0042724609,-9.8141479495,-0.0000325521,0.0000325521,-0.0000434028
559087.9100242830,0.0674438477,-0.0038146973,-9.8146057132,-0.0000976562,-0.0000325521,-0.0000217014
559087.9200242830,0.0660705566,-0.0042724609,-9.8139953616,-0.0000434028,0.0000217014,-0.0000325521
559087.9300242830,0.0682067871,-0.0042724609,-9.8147583011,-0.0000434028,-0.0000325521,-0.0000325521
559087.9400242830,0.0685119629,-0.0044250488,-9.8144531253,-0.0000542535,0.0000325521,-0.0000434028
559087.9500242830,0.0674438477,-0.0039672852,-9.8147583011,-0.0000651042,-0.0000542535,-0.0000434028
559087.9600242830,0.0675964355,-0.0039672852,-9.8144531253,-0.0000542535,0.0000434028,-0.0000434028
559087.9700242830,0.0674438477,-0.0036621094,-9.8150634769,-0.0000542535,-0.0000434028,-0.0000325521
559087.9800242831,0.0695800781,-0.0048828125,-9.8143005374,-0.0000759549,0.0000325521,-0.0000325521
559087.9900242829,0.0680541992,-0.0047302246,-9.8144531253,-0.0000651042,-0.0000542535,0.0000000000
559088.0000242830,0.0663757324,-0.0042724609,-9.8139953616,-0.0000759549,0.0000434028,-0.0000325521
559088.0100242830,0.0677490234,-0.0039672852,-9.8143005374,-0.0000434028,-0.0000108507,-0.0000325521
559088.0200242830,0.0691223145,-0.0042724609,-9.8149108890,-0.0000325521,0.0000434028,-0.0000325521
559088.0300242830,0.0677490234,-0.0042724609,-9.8143005374,-0.0000542535,-0.0000325521,-0.0000542535
559088.0400242830,0.0691223145,-0.0033569336,-9.8146057132,-0.0000976562,0.0000434028,-0.0000434028
559088.0500242830,0.0680541992,-0.0041198730,-9.8149108890,-0.0000325521,-0.0000434028,-0.0000325521
559088.0600242830,0.0677490234,-0.0041198730,-9.8149108890,-0.0000976562,0.0000434028,-0.0000325521
559088.0700242830,0.0686645508,-0.0045776367,-9.8152160648,-0.0000651042,-0.0000325521,-0.0000434028
559088.0800242830,0.0675964355,-0.0036621094,-9.8141479495,-0.0000325521,0.0000325521,-0.0000434028
559088.0900242830,0.0672912598,-0.0041198730,-9.8144531253,-0.0000542535,-0.0000325521,-0.0000434028
559088.1000242830,0.0669860840,-0.0053405762,-9.8141479495,-0.0000434028,0.0000217014,-0.0000325521
559088.1100242831,0.0683593750,-0.0041198730,-9.8144531253,-0.0000651042,-0.0000108507,-0.0000434028
559088.1200242830,0.0691223145,-0.0032043457,-9.8147583011,-0.0000759549,-0.0000000000,-0.0000217014
559088.1300242830,0.0671386719,-0.0042724609,-9.8147583011,-0.0000542535,-0.0000434028,-0.0000325521
559088.1400242830,0.0671386719,-0.0041198730,-9.8133850101,-0.0000434028,0.0000434028,-0.0000325521
559088.1500242830,0.0683593750,-0.0035095215,-9.8153686527,-0.0001085069,-0.0000434028,-0.0000325521
559088.1600242830,0.0679016113,-0.0042724609,-9.8144531253,0.0000000000,0.0000325521,-0.0000325521
559088.1700242830,0.0679016113,-0.0028991699,-9.8139953616,-0.0000651042,-0.0000000000,-0.0000325521
559088.1800242830,0.0682067871,-0.0048828125,-9.8153686527,-0.0001193576,0.0000108507,-0.0000325521
559088.1900242830,0.0660705566,-0.0053405762,-9.8141479495,-0.0000217014,-0.0000434028,-0.0000325521
559088.2000242830,0.0688171387,-0.0024414063,-9.8130798343,-0.0001085069,0.0000651042,-0.0000217014
559088.2100242840,0.0672912598,-0.0050354004,-9.8149108890,-0.0000542535,-0.0000651042,-0.0000434028
559088.2200242840,0.0665283203,-0.0041198730,-9.8143005374,-0.0000108507,0.0000759549,-0.0000325521
559088.2300242840,0.0694274902,-0.0035095215,-9.8141479495,-0.0000651042,-0.0000542535,-0.0000325521
559088.2400242840,0.0683593750,-0.0047302246,-9.8146057132,-0.0000542535,0.0000434028,-0.0000325521
559088.2500242840,0.0674438477,-0.0039672852,-9.8146057132,-0.0000434028,-0.0000651042,-0.0000434028
559088.2600242840,0.0660705566,-0.0048828125,-9.8147583011,-0.0001085069,0.0000651042,-0.0000325521
559088.2700242840,0.0682067871,-0.0047302246,-9.8146057132,-0.0000651042,-0.0000000000,-0.0000325521
559088.2800242840,0.0698852539,-0.0036621094,-9.8144531253,-0.0000217014,0.0000325521,-0.0000434028
559088.2900242840,0.0677490234,-0.0042724609,-9.8146057132,-0.0000759549,-0.0000325521,-0.0000217014
559088.3000242840,0.0666809082,-0.0047302246,-9.8144531253,-0.0000542535,0.0000108507,-0.0000325521
559088.3100242839,0.0688171387,-0.0041198730,-9.8143005374,-0.0000542535,-0.0000000000,-0.0000217014
559088.3200242840,0.0709533691,-0.0028991699,-9.8144531253,-0.0000976562,0.0000217014,-0.0000217014
559088.3300242840,0.0685119629,-0.0047302246,-9.8147583011,-0.0000434028,-0.0000108507,-0.0000325521
559088.3400242840,0.0654602051,-0.0045776367,-9.8143005374,-0.0000434028,-0.0000000000,-0.0000434028
559088.3500242840,0.0685119629,-0.0041198730,-9.8141479495,-0.0000976562,-0.0000000000,-0.0000325521
559088.3600242840,0.0695800781,-0.0045776367,-9.8150634769,-0.0000325521,-0.0000000000,-0.0000434028
559088.3700242840,0.0671386719,-0.0039672852,-9.8139953616,-0.0000434028,-0.0000434028,-0.0000325521
559088.3800242840,0.0654602051,-0.0038146973,-9.8146057132,-0.0000976562,0.0000325521,-0.0000325521
559088.3900242840,0.0691223145,-0.0036621094,-9.8146057132,-0.0000651042,-0.0000108507,-0.0000434028
559088.4000242840,0.0692749023,-0.0032043457,-9.8143005374,-0.0000542535,0.0000108507,-0.0000325521
559088.4100242840,0.0683593750,-0.0045776367,-9.8144531253,-0.0000542535,-0.0000108507,-0.0000434028
559088.4200242840,0.0672912598,-0.0051879883,-9.8143005374,-0.0000434028,0.0000325521,-0.0000542535
559088.4300242841,0.0679016113,-0.0032043457,-9.8144531253,-0.0000434028,-0.0000108507,-0.0000434028
559088.4400242839,0.0694274902,-0.0035095215,-9.8143005374,-0.0000651042,0.0000108507,-0.0000434028
559088.4500242840,0.0685119629,-0.0053405762,-9.8147583011,-0.0000542535,-0.0000325521,-0.0000325521
559088.4600242840,0.0671386719,-0.0047302246,-9.8138427738,-0.0001085069,0.0000217014,-0.0000325521
559088.4700242840,0.0665283203,-0.0030517578,-9.8144531253,-0.0000542535,-0.0000108507,-0.0000325521
559088.4800242840,0.0698852539,-0.0044250488,-9.8141479495,-0.0000108507,0.0000217014,-0.0000325521
559088.4900242840,0.0689697266,-0.0042724609,-9.8141479495,-0.0000651042,-0.0000325521,-0.0000434028
559088.5000242840,0.0662231445,-0.0042724609,-9.8144531253,-0.0000651042,0.0000108507,-0.0000217014
559088.5100242840,0.0669860840,-0.0032043457,-9.8149108890,-0.0000651042,-0.0000000000,-0.0000325521
559088.5200242840,0.0700378418,-0.0036621094,-9.8143005374,-0.0000759549,0.0000217014,-0.0000325521
559088.5300242840,0.0680541992,-0.0044250488,-9.8139953616,-0.0000651042,-0.0000434028,-0.0000325521
559088.5400242840,0.0656127930,-0.0044250488,-9.8146057132,-0.0000325521,0.0000217014,-0.0000325521
559088.5500242840,0.0680541992,-0.0024414063,-9.8139953616,-0.0000651042,-0.0000000000,-0.0000434028
559088.5600242839,0.0698852539,-0.0042724609,-9.8136901859,-0.0000217014,-0.0000000000,-0.0000325521
559088.5700242840,0.0686645508,-0.0050354004,-9.8147583011,-0.0000434028,-0.0000108507,-0.0000325521
559088.5800242840,0.0660705566,-0.0047302246,-9.8144531253,-0.0001193576,0.0000217014,-0.0000217014
559088.5900242840,0.0679016113,-0.0027465820,-9.8144531253,-0.0000759549,0.0000108507,-0.0000217014
559088.6000242840,0.0706481934,-0.0032043457,-9.8149108890,-0.0000325521,-0.0000000000,-0.0000325521
559088.6100242840,0.0669860840,-0.0048828125,-9.8149108890,-0.0000759549,-0.0000325521,-0.0000434028
559088.6200242840,0.0656127930,-0.0051879883,-9.8143005374,-0.0000542535,0.0000217014,-0.0000434028
559088.6300242840,0.0680541992,-0.0027465820,-9.8143005374,-0.0000434028,-0.0000000000,-0.0000325521
559088.6400242840,0.0701904297,-0.0035095215,-9.8147583011,-0.0000651042,-0.0000000000,-0.0000217014
559088.6500242840,0.0675964355,-0.0064086914,-9.8141479495,-0.0000542535,-0.0000325521,-0.0000217014
559088.6600242840,0.0668334961,-0.0039672852,-9.8149108890,-0.0001085069,0.0000217014,-0.0000217014
559088.6700242840,0.0680541992,-0.0025939941,-9.8138427738,-0.0000759549,-0.0000000000,-0.0000542535
559088.6800242841,0.0692749023,-0.0042724609,-9.8144531253,0.0000000000,-0.0000000000,-0.0000325521
559088.6900242839,0.0682067871,-0.0053405762,-9.8144531253,-0.0000651042,-0.0000108507,-0.0000434028
559088.7000242840,0.0669860840,-0.0042724609,-9.8146057132,-0.0000976562,0.0000217014,-0.0000217014
559088.7100242840,0.0682067871,-0.0028991699,-9.8139953616,-0.0000325521,-0.0000325521,-0.0000325521
559088.7200242840,0.0685119629,-0.0032043457,-9.8144531253,-0.0000651042,0.0000108507,-0.0000325521
559088.7300242840,0.0669860840,-0.0054931641,-9.8149108890,-0.0001302083,-0.0000000000,-0.0000325521
559088.7400242840,0.0668334961,-0.0039672852,-9.8141479495,-0.0000325521,0.0000217014,-0.0000434028
559088.7500242840,0.0672912598,-0.0019836426,-9.8147583011,-0.0000542535,-0.0000000000,-0.0000434028
559088.7600242840,0.0685119629,-0.0047302246,-9.8146057132,-0.0000434028,0.0000217014,-0.0000325521
559088.7700242840,0.0682067871,-0.0054931641,-9.8141479495,-0.0000434028,-0.0000434028,-0.0000434028
559088.7800242840,0.0663757324,-0.0035095215,-9.8146057132,-0.0001085069,0.0000217014,-0.0000217014
559088.7900242840,0.0671386719,-0.0035095215,-9.8144531253,-0.0000651042,-0.0000000000,-0.0000542535
559088.8000242840,0.0694274902,-0.0047302246,-9.8146057132,-0.0000325521,0.0000108507,-0.0000434028
559088.8100242839,0.0686645508,-0.0042724609,-9.8152160648,-0.0000651042,-0.0000108507,-0.0000325521
559088.8200242840,0.0665283203,-0.0038146973,-9.8138427738,-0.0000542535,-0.0000000000,-0.0000325521
559088.8300242840,0.0669860840,-0.0036621094,-9.8144531253,-0.0000325521,-0.0000000000,-0.0000434028
559088.8400242840,0.0685119629,-0.0042724609,-9.8147583011,-0.0000976562,-0.0000000000,-0.0000325521
559088.8500242840,0.0668334961,-0.0048828125,-9.8141479495,-0.0000976562,-0.0000000000,-0.0000434028
559088.8600242840,0.0685119629,-0.0033569336,-9.8146057132,-0.0000651042,0.0000108507,-0.0000325521
559088.8700242840,0.0685119629,-0.0035095215,-9.8146057132,-0.0000434028,-0.0000000000,-0.0000434028
559088.8800242840,0.0677490234,-0.0045776367,-9.8139953616,-0.0000542535,0.0000217014,-0.0000325521
559088.8900242840,0.0671386719,-0.0044250488,-9.8143005374,-0.0000542535,-0.0000325521,-0.0000217014
559088.9000242840,0.0672912598,-0.0032043457,-9.8146057132,-0.0000542535,0.0000217014,-0.0000325521
559088.9100242840,0.0679016113,-0.0044250488,-9.8144531253,-0.0000542535,-0.0000000000,-0.0000325521
559088.9200242840,0.0688171387,-0.0047302246,-9.8144531253,-0.0000759549,0.0000217014,-0.0000325521
559088.9300242841,0.0682067871,-0.0038146973,-9.8143005374,-0.0000759549,-0.0000108507,-0.0000542535
559088.9400242839,0.0671386719,-0.0035095215,-9.8150634769,-0.0000434028,0.0000217014,-0.0000325521
559088.9500242840,0.0679016113,-0.0042724609,-9.8143005374,-0.0000325521,-0.0000000000,-0.0000434028
559088.9600242840,0.0686645508,-0.0044250488,-9.8146057132,-0.0000542535,-0.0000000000,-0.0000325521
559088.9700242840,0.0682067871,-0.0045776367,-9.8146057132,-0.0000651042,-0.0000325521,-0.0000217014
559088.9800242840,0.0672912598,-0.0030517578,-9.8138427738,-0.0000651042,0.0000217014,-0.0000325521
559088.9900242840,0.0677490234,-0.0036621094,-9.8141479495,-0.0000759549,-0.0000108507,-0.0000434028
559089.0000242840,0.0697326660,-0.0051879883,-9.8144531253,-0.0000434028,0.0000108507,-0.0000325521
559089.0100242840,0.0680541992,-0.0039672852,-9.8149108890,-0.0000759549,-0.0000108507,-0.0000434028
559089.0200242840,0.0671386719,-0.0041198730,-9.8136901859,-0.0000434028,0.0000217014,-0.0000325521
559089.0300242840,0.0682067871,-0.0045776367,-9.8141479495,-0.0000217014,-0.0000325521,-0.0000434028
559089.0400242840,0.0682067871,-0.0045776367,-9.8149108890,-0.0000651042,-0.0000000000,-0.0000434028
559089.0500242840,0.0680541992,-0.0035095215,-9.8141479495,-0.0000976562,-0.0000108507,-0.0000325521
559089.0600242839,0.0677490234,-0.0039672852,-9.8149108890,-0.0000434028,0.0000108507,-0.0000434028
559089.0700242840,0.0663757324,-0.0044250488,-9.8146057132,-0.0000542535,-0.0000000000,-0.0000434028
559089.0800242840,0.0686645508,-0.0042724609,-9.8146057132,-0.0000759549,0.0000108507,-0.0000325521
559089.0900242840,0.0683593750,-0.0039672852,-9.8143005374,-0.0000108507,-0.0000108507,-0.0000325521
559089.1000242840,0.0683593750,-0.0032043457,-9.8146057132,-0.0000651042,0.0000108507,0.0000000000
559089.1100242840,0.0666809082,-0.0039672852,-9.8139953616,-0.0000976562,-0.0000108507,-0.0000325521
559089.1200242840,0.0669860840,-0.0042724609,-9.8144531253,-0.0000325521,0.0000217014,-0.0000434028
559089.1300242840,0.0685119629,-0.0035095215,-9.8141479495,-0.0001085069,-0.0000108507,-0.0000434028
559089.1400242840,0.0685119629,-0.0048828125,-9.8144531253,-0.0000542535,0.0000108507,-0.0000434028
559089.1500242840,0.0675964355,-0.0042724609,-9.8143005374,-0.0000217014,-0.0000108507,-0.0000434028
559089.1600242840,0.0672912598,-0.0033569336,-9.8146057132,-0.0000651042,0.0000217014,-0.0000217014
559089.1700242840,0.0682067871,-0.0047302246,-9.8146057132,-0.0000976562,-0.0000108507,-0.0000325521
559089.1800242841,0.0672912598,-0.0036621094,-9.8147583011,-0.0000434028,-0.0000000000,-0.0000325521
559089.1900242839,0.0671386719,-0.0039672852,-9.8138427738,-0.0000976562,-0.0000000000,-0.0000434028
559089.2000242840,0.0679016113,-0.0044250488,-9.8141479495,-0.0000651042,0.0000217014,-0.0000434028
559089.2100242840,0.0685119629,-0.0044250488,-9.8139953616,-0.0000108507,-0.0000108507,-0.0000325521
559089.2200242840,0.0683593750,-0.0032043457,-9.8141479495,-0.0000542535,-0.0000000000,-0.0000217014
559089.2300242840,0.0675964355,-0.0047302246,-9.8138427738,-0.0000434028,-0.0000000000,-0.0000325521
559089.2400242840,0.0662231445,-0.0050354004,-9.8143005374,-0.0000542535,-0.0000000000,-0.0000325521
559089.2500242840,0.0683593750,-0.0036621094,-9.8147583011,-0.0001193576,-0.0000000000,-0.0000325521
559089.2600242840,0.0685119629,-0.0036621094,-9.8147583011,-0.0000759549,-0.0000000000,-0.0000434028
559089.2700242840,0.0668334961,-0.0050354004,-9.8144531253,-0.0000108507,-0.0000000000,-0.0000325521
559089.2800242840,0.0671386719,-0.0041198730,-9.8144531253,-0.0000976562,0.0000108507,-0.0000325521
559089.2900242850,0.0688171387,-0.0035095215,-9.8141479495,-0.0000976562,-0.0000108507,-0.0000434028
559089.3000242850,0.0680541992,-0.0042724609,-9.8141479495,-0.0000108507,0.0000108507,-0.0000434028
559089.3100242850,0.0672912598,-0.0044250488,-9.8146057132,-0.0000651042,-0.0000000000,-0.0000325521
559089.3200242850,0.0675964355,-0.0047302246,-9.8139953616,-0.0001085069,0.0000217014,-0.0000217014
559089.3300242850,0.0686645508,-0.0033569336,-9.8139953616,-0.0000542535,-0.0000000000,-0.0000434028
559089.3400242850,0.0682067871,-0.0032043457,-9.8144531253,-0.0000651042,-0.0000000000,-0.0000217014
559089.3500242850,0.0672912598,-0.0062561035,-9.8147583011,-0.0000108507,0.0000217014,-0.0000542535
559089.3600242850,0.0675964355,-0.0048828125,-9.8147583011,-0.0000542535,-0.0000000000,-0.0000434028
559089.3700242850,0.0686645508,-0.0027465820,-9.8141479495,-0.0000759549,-0.0000108507,-0.0000325521
559089.3800242851,0.0669860840,-0.0033569336,-9.8149108890,-0.0000434028,-0.0000000000,-0.0000542535
559089.3900242849,0.0679016113,-0.0050354004,-9.8146057132,-0.0000542535,-0.0000000000,-0.0000434028
559089.4000242850,0.0666809082,-0.0050354004,-9.8146057132,-0.0000976562,0.0000108507,-0.0000325521
559089.4100242850,0.0686645508,-0.0032043457,-9.8138427738,-0.0000651042,-0.0000000000,-0.0000217014
559089.4200242850,0.0688171387,-0.0032043457,-9.8141479495,-0.0000325521,-0.0000000000,-0.0000542535
559089.4300242850,0.0679016113,-0.0051879883,-9.8147583011,-0.0000325521,-0.0000000000,-0.0000325521
559089.4400242850,0.0674438477,-0.0047302246,-9.8143005374,-0.0000976562,0.0000325521,-0.0000325521
559089.4500242850,0.0680541992,-0.0027465820,-9.8146057132,-0.0000651042,-0.0000000000,-0.0000434028
559089.4600242850,0.0692749023,-0.0035095215,-9.8143005374,-0.0000542535,-0.0000000000,-0.0000542535
559089.4700242850,0.0669860840,-0.0054931641,-9.8146057132,-0.0000434028,-0.0000000000,-0.0000325521
559089.4800242850,0.0672912598,-0.0042724609,-9.8149108890,-0.0000759549,-0.0000000000,-0.0000325521
559089.4900242850,0.0688171387,-0.0024414063,-9.8144531253,-0.0000542535,-0.0000000000,-0.0000434028
559089.5000242851,0.0683593750,-0.0036621094,-9.8149108890,-0.0000325521,0.0000217014,-0.0000434028
559089.5100242849,0.0675964355,-0.0056457520,-9.8146057132,-0.0000651042,-0.0000000000,-0.0000217014
559089.5200242850,0.0675964355,-0.0044250488,-9.8144531253,-0.0000976562,0.0000108507,-0.0000325521
559089.5300242850,0.0685119629,-0.0019836426,-9.8144531253,-0.0000759549,-0.0000108507,-0.0000434028
559089.5400242850,0.0689697266,-0.0041198730,-9.8146057132,-0.0000217014,-0.0000000000,-0.0000325521
559089.5500242850,0.0677490234,-0.0059509277,-9.8141479495,-0.0000434028,-0.0000000000,-0.0000434028
559089.5600242850,0.0672912598,-0.0042724609,-9.8147583011,-0.0000651042,0.0000217014,-0.0000325521
559089.5700242850,0.0683593750,-0.0025939941,-9.8150634769,-0.0000434028,-0.0000108507,-0.0000434028
559089.5800242850,0.0691223145,-0.0039672852,-9.8146057132,-0.0000325521,0.0000217014,0.0000000000
559089.5900242850,0.0663757324,-0.0059509277,-9.8143005374,-0.0000976562,-0.0000325521,-0.0000434028
559089.6000242850,0.0677490234,-0.0050354004,-9.8143005374,-0.0000651042,0.0000217014,-0.0000325521
559089.6100242850,0.0691223145,-0.0015258789,-9.8146057132,-0.0000434028,-0.0000000000,-0.0000434028
559089.6200242850,0.0675964355,-0.0047302246,-9.8144531253,-0.0000217014,-0.0000000000,-0.0000325521
559089.6300242851,0.0689697266,-0.0070190430,-9.8146057132,-0.0000542535,-0.0000108507,-0.0000325521
559089.6400242849,0.0672912598,-0.0035095215,-9.8144531253,-0.0001193576,0.0000325521,-0.0000434028
559089.6500242850,0.0691223145,-0.0015258789,-9.8146057132,-0.0000542535,-0.0000000000,-0.0000325521
559089.6600242850,0.0675964355,-0.0045776367,-9.8149108890,-0.0000325521,-0.0000000000,-0.0000434028
559089.6700242850,0.0685119629,-0.0059509277,-9.8144531253,-0.0000976562,-0.0000000000,-0.0000434028
559089.6800242850,0.0674438477,-0.0036621094,-9.8139953616,-0.0000542535,-0.0000000000,-0.0000434028
559089.6900242850,0.0685119629,-0.0019836426,-9.8141479495,-0.0000217014,-0.0000000000,-0.0000434028
559089.7000242850,0.0671386719,-0.0047302246,-9.8143005374,-0.0000434028,-0.0000000000,-0.0000217014
559089.7100242850,0.0669860840,-0.0062561035,-9.8149108890,-0.0000976562,-0.0000000000,-0.0000217014
559089.7200242850,0.0691223145,-0.0024414063,-9.8146057132,-0.0000976562,-0.0000000000,-0.0000325521
559089.7300242850,0.0675964355,-0.0022888184,-9.8147583011,-0.0000759549,-0.0000000000,-0.0000434028
559089.7400242850,0.0671386719,-0.0048828125,-9.8143005374,0.0000000000,-0.0000000000,-0.0000434028
559089.7500242851,0.0677490234,-0.0059509277,-9.8144531253,-0.0000759549,-0.0000000000,-0.0000434028
559089.7600242849,0.0682067871,-0.0030517578,-9.8141479495,-0.0000759549,0.0000108507,-0.0000325521
559089.7700242850,0.0688171387,-0.0025939941,-9.8136901859,-0.0000434028,-0.0000108507,0.0000000000
559089.7800242850,0.0665283203,-0.0045776367,-9.8143005374,-0.0000434028,0.0000108507,-0.0000325521
559089.7900242850,0.0672912598,-0.0056457520,-9.8146057132,-0.0001193576,-0.0000000000,-0.0000325521
559089.8000242850,0.0688171387,-0.0028991699,-9.8152160648,-0.0000759549,0.0000108507,-0.0000434028
559089.8100242850,0.0679016113,-0.0021362305,-9.8146057132,-0.0000108507,-0.0000108507,-0.0000434028
559089.8200242850,0.0680541992,-0.0045776367,-9.8147583011,-0.0000542535,0.0000217014,-0.0000434028
559089.8300242850,0.0671386719,-0.0059509277,-9.8141479495,-0.0000759549,-0.0000108507,-0.0000325521
559089.8400242850,0.0689697266,-0.0027465820,-9.8147583011,-0.0000542535,0.0000108507,-0.0000217014
559089.8500242850,0.0685119629,-0.0027465820,-9.8141479495,-0.0000542535,-0.0000108507,-0.0000217014
559089.8600242850,0.0669860840,-0.0056457520,-9.8144531253,-0.0000542535,0.0000108507,-0.0000434028
559089.8700242850,0.0683593750,-0.0053405762,-9.8135375980,-0.0000759549,-0.0000000000,-0.0000542535
559089.8800242851,0.0683593750,-0.0025939941,-9.8141479495,-0.0000651042,0.0000108507,-0.0000542535
559089.8900242849,0.0683593750,-0.0032043457,-9.8150634769,-0.0000217014,-0.0000000000,-0.0000217014
559089.9000242850,0.0674438477,-0.0057983398,-9.8149108890,-0.0000434028,-0.0000000000,-0.0000325521
559089.9100242850,0.0683593750,-0.0047302246,-9.8147583011,-0.0001085069,-0.0000000000,-0.0000325521
559089.9200242850,0.0677490234,-0.0028991699,-9.8143005374,-0.0000651042,-0.0000000000,-0.0000217014
559089.9300242850,0.0672912598,-0.0028991699,-9.8144531253,-0.0000542535,0.0000108507,-0.0000542535
559089.9400242850,0.0663757324,-0.0059509277,-9.8149108890,-0.0000542535,-0.0000108507,-0.0000325521
559089.9500242850,0.0682067871,-0.0048828125,-9.8139953616,-0.0000759549,0.0000108507,-0.0000434028
559089.9600242850,0.0686645508,-0.0012207031,-9.8138427738,-0.0000542535,-0.0000108507,-0.0000325521
559089.9700242850,0.0674438477,-0.0039672852,-9.8149108890,-0.0000325521,0.0000108507,-0.0000217014
559089.9800242850,0.0671386719,-0.0057983398,-9.8141479495,-0.0000759549,-0.0000108507,-0.0000325521
559089.9900242850,0.0683593750,-0.0038146973,-9.8143005374,-0.0001193576,0.0000108507,-0.0000542535
559090.0000242851,0.0685119629,-0.0030517578,-9.8141479495,-0.0000217014,-0.0000000000,-0.0000434028
559090.0100242849,0.0682067871,-0.0033569336,-9.8146057132,-0.0000325521,-0.0000000000,-0.0000651042
559090.0200242850,0.0668334961,-0.0056457520,-9.8144531253,-0.0000651042,-0.0000000000,-0.0000325521
559090.0300242850,0.0677490234,-0.0041198730,-9.8146057132,-0.0000651042,0.0000108507,-0.0000325521
559090.0400242850,0.0680541992,-0.0021362305,-9.8147583011,-0.0000759549,-0.0000000000,-0.0000325521
559090.0500242850,0.0674438477,-0.0051879883,-9.8150634769,-0.0000759549,-0.0000000000,-0.0000325521
559090.0600242850,0.0669860840,-0.0044250488,-9.8146057132,-0.0000976562,-0.0000000000,-0.0000434028
559090.0700242850,0.0688171387,-0.0032043457,-9.8146057132,-0.0000976562,-0.0000000000,-0.0000434028
559090.0800242850,0.0674438477,-0.0033569336,-9.8147583011,-0.0000217014,0.0000108507,-0.0000434028
559090.0900242850,0.0666809082,-0.0039672852,-9.8146057132,-0.0000434028,-0.0000000000,-0.0000217014
559090.1000242850,0.0683593750,-0.0053405762,-9.8149108890,-0.0000651042,-0.0000000000,-0.0000325521
559090.1100242850,0.0683593750,-0.0035095215,-9.8147583011,-0.0001085069,-0.0000000000,-0.0000217014
559090.1200242850,0.0674438477,-0.0022888184,-9.8143005374,-0.0000542535,0.0000108507,-0.0000434028
559090.1300242851,0.0689697266,-0.0051879883,-9.8141479495,-0.0000325521,-0.0000108507,-0.0000434028
559090.1400242849,0.0665283203,-0.0061035156,-9.8150634769,-0.0000759549,0.0000108507,-0.0000434028
559090.1500242850,0.0677490234,-0.0027465820,-9.8144531253,-0.0000651042,-0.0000000000,-0.0000325521
559090.1600242850,0.0691223145,-0.0015258789,-9.8141479495,-0.0000217014,0.0000108507,-0.0000325521
559090.1700242850,0.0682067871,-0.0056457520,-9.8144531253,-0.0000325521,-0.0000000000,-0.0000325521
559090.1800242850,0.0662231445,-0.0057983398,-9.8147583011,-0.0001302083,-0.0000000000,-0.0000217014
559090.1900242850,0.0680541992,-0.0028991699,-9.8144531253,-0.0000976562,0.0000108507,-0.0000325521
559090.2000242850,0.0697326660,-0.0032043457,-9.8144531253,-0.0000325521,-0.0000000000,-0.0000434028
559090.2100242850,0.0685119629,-0.0045776367,-9.8144531253,-0.0000542535,-0.0000000000,-0.0000325521
559090.2200242850,0.0671386719,-0.0061035156,-9.8144531253,-0.0000651042,-0.0000000000,-0.0000325521
559090.2300242850,0.0671386719,-0.0025939941,-9.8141479495,-0.0000759549,0.0000325521,-0.0000217014
559090.2400242850,0.0689697266,-0.0024414063,-9.8144531253,-0.0000651042,-0.0000000000,-0.0000217014
559090.2500242851,0.0675964355,-0.0056457520,-9.8141479495,-0.0000434028,-0.0000000000,-0.0000325521
559090.2600242849,0.0669860840,-0.0053405762,-9.8149108890,-0.0001085069,-0.0000325521,-0.0000325521
559090.2700242850,0.0679016113,-0.0025939941,-9.8141479495,-0.0000976562,0.0000325521,-0.0000325521
559090.2800242850,0.0692749023,-0.0030517578,-9.8147583011,0.0000000000,-0.0000000000,-0.0000434028
559090.2900242850,0.0689697266,-0.0064086914,-9.8143005374,-0.0000759549,0.0000108507,-0.0000217014
559090.3000242850,0.0674438477,-0.0053405762,-9.8150634769,-0.0000434028,-0.0000108507,-0.0000217014
559090.3100242850,0.0669860840,-0.0010681152,-9.8150634769,-0.0000651042,0.0000217014,-0.0000325521
559090.3200242850,0.0680541992,-0.0030517578,-9.8143005374,-0.0000759549,-0.0000108507,-0.0000434028
559090.3300242850,0.0691223145,-0.0056457520,-9.8147583011,-0.0000325521,-0.0000434028,-0.0000325521
559090.3400242850,0.0674438477,-0.0044250488,-9.8139953616,-0.0001085069,0.0000108507,-0.0000434028
559090.3500242850,0.0672912598,-0.0038146973,-9.8141479495,0.0000000000,0.0000108507,-0.0000217014
559090.3600242860,0.0679016113,-0.0022888184,-9.8147583011,-0.0000542535,0.0000217014,-0.0000325521
559090.3700242860,0.0679016113,-0.0067138672,-9.8138427738,-0.0000651042,0.0000108507,-0.0000434028
559090.3800242860,0.0675964355,-0.0042724609,-9.8149108890,-0.0000542535,-0.0000651042,-0.0000325521
559090.3900242860,0.0666809082,-0.0013732910,-9.8147583011,-0.0001193576,-0.0000000000,-0.0000434028
559090.4000242860,0.0689697266,-0.0042724609,-9.8143005374,-0.0000217014,0.0000542535,-0.0000434028
559090.4100242860,0.0692749023,-0.0065612793,-9.8147583011,-0.0000651042,-0.0000000000,-0.0000434028
559090.4200242860,0.0675964355,-0.0042724609,-9.8146057132,-0.0000651042,-0.0000325521,-0.0000325521
559090.4300242860,0.0669860840,-0.0016784668,-9.8141479495,-0.0000217014,0.0000217014,-0.0000217014
559090.4400242860,0.0686645508,-0.0035095215,-9.8149108890,-0.0000542535,-0.0000000000,-0.0000325521
559090.4500242861,0.0686645508,-0.0062561035,-9.8141479495,-0.0000976562,-0.0000000000,-0.0000434028
559090.4600242859,0.0674438477,-0.0047302246,-9.8143005374,-0.0000976562,-0.0000325521,-0.0000325521
559090.4700242860,0.0665283203,-0.0021362305,-9.8141479495,-0.0000434028,-0.0000000000,-0.0000434028
559090.4800242860,0.0677490234,-0.0038146973,-9.8147583011,-0.0000325521,-0.0000000000,-0.0000325521
559090.4900242860,0.0689697266,-0.0056457520,-9.8146057132,-0.0000542535,-0.0000000000,-0.0000325521
559090.5000242860,0.0680541992,-0.0035095215,-9.8149108890,-0.0000759549,-0.0000000000,-0.0000217014
559090.5100242860,0.0662231445,-0.0024414063,-9.8152160648,-0.0000759549,-0.0000000000,-0.0000325521
559090.5200242860,0.0675964355,-0.0045776367,-9.8146057132,-0.0000542535,0.0000217014,-0.0000542535
559090.5300242860,0.0697326660,-0.0053405762,-9.8141479495,-0.0000651042,-0.0000000000,-0.0000325521
559090.5400242860,0.0680541992,-0.0033569336,-9.8139953616,-0.0000542535,-0.0000000000,-0.0000651042
559090.5500242860,0.0675964355,-0.0025939941,-9.8144531253,-0.0000434028,-0.0000108507,-0.0000217014
559090.5600242860,0.0679016113,-0.0042724609,-9.8139953616,-0.0000325521,0.0000217014,-0.0000325521
559090.5700242860,0.0695800781,-0.0051879883,-9.8141479495,-0.0000976562,-0.0000000000,-0.0000434028
559090.5800242861,0.0674438477,-0.0047302246,-9.8146057132,-0.0000325521,-0.0000000000,-0.0000217014
559090.5900242859,0.0662231445,-0.0025939941,-9.8149108890,-0.0001085069,-0.0000000000,-0.0000434028
559090.6000242860,0.0674438477,-0.0047302246,-9.8143005374,-0.0000651042,0.0000217014,-0.0000542535
559090.6100242860,0.0686645508,-0.0044250488,-9.8144531253,-0.0000108507,-0.0000108507,-0.0000325521
559090.6200242860,0.0686645508,-0.0033569336,-9.8146057132,-0.0000759549,-0.0000000000,-0.0000217014
559090.6300242860,0.0666809082,-0.0039672852,-9.8139953616,-0.0000217014,-0.0000000000,0.0000000000
559090.6400242860,0.0691223145,-0.0039672852,-9.8146057132,-0.0000759549,0.0000217014,-0.0000325521
559090.6500242860,0.0686645508,-0.0050354004,-9.8147583011,-0.0000759549,-0.0000108507,-0.0000325521
559090.6600242860,0.0675964355,-0.0041198730,-9.8146057132,-0.0000325521,-0.0000000000,-0.0000434028
559090.6700242860,0.0666809082,-0.0033569336,-9.8149108890,-0.0001085069,-0.0000000000,-0.0000542535
559090.6800242860,0.0680541992,-0.0054931641,-9.8144531253,0.0000217014,-0.0000000000,-0.0000434028
559090.6900242860,0.0691223145,-0.0030517578,-9.8146057132,-0.0001302083,-0.0000000000,-0.0000217014
559090.7000242861,0.0675964355,-0.0062561035,-9.8143005374,0.0000651042,0.0000108507,-0.0000325521
559090.7100242859,0.0668334961,-0.0009155273,-9.8149108890,-0.0002712674,-0.0000000000,-0.0000542535
559090.7200242860,0.0682067871,-0.0079345703,-9.8147583011,0.0001410590,0.0000325521,-0.0000108507
559090.7300242860,0.0694274902,-0.0003051758,-9.8150634769,-0.0003363715,-0.0000108507,-0.0000542535
559090.7400242860,0.0668334961,-0.0076293945,-9.8147583011,0.0002170139,0.0000108507,-0.0000325521
559090.7500242860,0.0675964355,-0.0000000000,-9.8147583011,-0.0003255208,-0.0000000000,-0.0000325521
559090.7600242860,0.0688171387,-0.0076293945,-9.8141479495,0.0002061632,0.0000108507,-0.0000325521
559090.7700242860,0.0682067871,-0.0019836426,-9.8149108890,-0.0003363715,-0.0000325521,-0.0000434028
559090.7800242860,0.0668334961,-0.0065612793,-9.8139953616,0.0001953125,0.0000108507,-0.0000434028
559090.7900242860,0.0683593750,-0.0000000000,-9.8147583011,-0.0003363715,0.0000217014,-0.0000434028
559090.8000242860,0.0675964355,-0.0057983398,-9.8144531253,0.0001302083,-0.0000000000,-0.0000542535
559090.8100242860,0.0682067871,-0.0050354004,-9.8143005374,-0.0001953125,0.0000108507,-0.0000542535
559090.8200242860,0.0671386719,-0.0025939941,-9.8147583011,0.0000217014,-0.0000434028,-0.0000217014
559090.8300242861,0.0672912598,-0.0054931641,-9.8143005374,-0.0001085069,0.0000325521,-0.0000434028
559090.8400242859,0.0686645508,-0.0021362305,-9.8147583011,-0.0000217014,-0.0000434028,-0.0000217014
559090.8500242860,0.0682067871,-0.0074768066,-9.8144531253,-0.0001302083,0.0000651042,-0.0000434028
559090.8600242860,0.0679016113,-0.0000000000,-9.8150634769,-0.0000325521,-0.0000434028,-0.0000325521
559090.8700242860,0.0675964355,-0.0068664551,-9.8138427738,-0.0000542535,0.0000217014,-0.0000217014
559090.8800242860,0.0682067871,-0.0013732910,-9.8149108890,-0.0000542535,-0.0000000000,-0.0000542535
559090.8900242860,0.0679016113,-0.0077819824,-9.8139953616,-0.0000217014,0.0000325521,-0.0000217014
559090.9000242860,0.0683593750,-0.0001525879,-9.8150634769,-0.0001302083,-0.0000434028,-0.0000325521
559090.9100242860,0.0679016113,-0.0059509277,-9.8139953616,0.0000108507,0.0000325521,-0.0000217014
559090.9200242860,0.0679016113,-0.0024414063,-9.8143005374,-0.0001953125,-0.0000434028,-0.0000434028
559090.9300242860,0.0683593750,-0.0074768066,-9.8150634769,0.0000542535,0.0000217014,-0.0000325521
559090.9400242860,0.0679016113,-0.0004577637,-9.8144531253,-0.0002495660,-0.0000325521,-0.0000434028
559090.9500242861,0.0677490234,-0.0056457520,-9.8143005374,0.0001410590,0.0000325521,-0.0000108507
559090.9600242859,0.0682067871,-0.0021362305,-9.8150634769,-0.0002387153,-0.0000651042,-0.0000325521
559090.9700242860,0.0677490234,-0.0077819824,-9.8147583011,0.0001736111,0.0000325521,-0.0000325521
559090.9800242860,0.0683593750,-0.0001525879,-9.8144531253,-0.0003797743,-0.0000325521,-0.0000434028
559090.9900242860,0.0669860840,-0.0059509277,-9.8143005374,0.0002387153,0.0000108507,-0.0000325521
559091.0000242860,0.0675964355,-0.0035095215,-9.8149108890,-0.0003146701,-0.0000325521,-0.0000434028
559091.0100242860,0.0679016113,-0.0076293945,-9.8144531253,0.0001519097,0.0000108507,-0.0000325521
559091.0200242860,0.0688171387,-0.0019836426,-9.8147583011,-0.0002821181,-0.0000108507,-0.0000217014
559091.0300242860,0.0675964355,-0.0028991699,-9.8144531253,0.0001519097,-0.0000000000,-0.0000108507
559091.0400242860,0.0691223145,-0.0056457520,-9.8144531253,-0.0002170139,-0.0000000000,-0.0000434028
559091.0500242860,0.0682067871,-0.0047302246,-9.8152160648,0.0000217014,-0.0000000000,-0.0000434028
559091.0600242860,0.0674438477,-0.0059509277,-9.8133850101,-0.0001302083,-0.0000000000,-0.0000325521
559091.0700242860,0.0685119629,0.0004577637,-9.8149108890,-0.0000434028,-0.0000000000,-0.0000542535
559091.0800242861,0.0683593750,-0.0082397461,-9.8143005374,-0.0000108507,0.0000217014,-0.0000434028
559091.0900242859,0.0671386719,-0.0013732910,-9.8150634769,-0.0001085069,-0.0000325521,-0.0000325521
559091.1000242860,0.0669860840,-0.0068664551,-9.8139953616,-0.0000217014,0.0000325521,-0.0000325521
559091.1100242860,0.0672912598,0.0003051758,-9.8149108890,-0.0001085069,-0.0000325521,-0.0000434028
559091.1200242860,0.0685119629,-0.0088500977,-9.8144531253,-0.0000108507,0.0000325521,-0.0000434028
559091.1300242860,0.0677490234,-0.0022888184,-9.8152160648,-0.0001519097,-0.0000542535,-0.0000325521
559091.1400242860,0.0682067871,-0.0054931641,-9.8135375980,0.0000325521,0.0000542535,-0.0000434028
559091.1500242860,0.0674438477,-0.0000000000,-9.8156738284,-0.0001193576,-0.0000759549,-0.0000217014
559091.1600242860,0.0668334961,-0.0090026855,-9.8146057132,0.0000868056,0.0000868056,-0.0000108507
559091.1700242860,0.0697326660,-0.0007629395,-9.8144531253,-0.0002495660,-0.0000542535,-0.0000434028
559091.1800242860,0.0682067871,-0.0059509277,-9.8141479495,0.0001085069,0.0000325521,-0.0000651042
559091.1900242860,0.0653076172,-0.0009155273,-9.8149108890,-0.0002495660,-0.0000542535,-0.0000542535
559091.2000242861,0.0680541992,-0.0083923340,-9.8139953616,0.0001193576,0.0000976562,-0.0000108507
559091.2100242859,0.0703430176,-0.0010681152,-9.8149108890,-0.0002929687,-0.0000434028,-0.0000325521
559091.2200242860,0.0680541992,-0.0065612793,-9.8144531253,0.0002061632,0.0000217014,-0.0000325521
559091.2300242860,0.0675964355,-0.0001525879,-9.8149108890,-0.0003038194,-0.0000000000,-0.0000325521
559091.2400242860,0.0666809082,-0.0094604492,-9.8136901859,0.0002170139,0.0000217014,-0.0000325521
559091.2500242860,0.0694274902,-0.0001525879,-9.8150634769,-0.0004014757,-0.0000000000,-0.0000542535
559091.2600242860,0.0686645508,-0.0071716309,-9.8138427738,0.0002278646,-0.0000108507,-0.0000325521
559091.2700242860,0.0669860840,-0.0003051758,-9.8143005374,-0.0003580729,0.0000108507,-0.0000325521
559091.2800242860,0.0685119629,-0.0088500977,-9.8144531253,0.0002170139,0.0000108507,0.0000000000
559091.2900242860,0.0686645508,0.0003051758,-9.8149108890,-0.0003146701,-0.0000108507,-0.0000434028
559091.3000242860,0.0682067871,-0.0062561035,-9.8141479495,0.0002170139,0.0000217014,-0.0000108507
559091.3100242860,0.0669860840,-0.0007629395,-9.8149108890,-0.0003255208,-0.0000000000,-0.0000434028
559091.3200242860,0.0669860840,-0.0088500977,-9.8141479495,0.0001519097,-0.0000000000,-0.0000434028
559091.3300242861,0.0694274902,-0.0000000000,-9.8146057132,-0.0003363715,0.0000651042,-0.0000325521
559091.3400242859,0.0679016113,-0.0065612793,-9.8143005374,0.0002170139,-0.0000759549,-0.0000434028
559091.3500242860,0.0671386719,-0.0013732910,-9.8143005374,-0.0003146701,0.0000325521,-0.0000217014
559091.3600242860,0.0671386719,-0.0088500977,-9.8149108890,0.0001953125,-0.0000108507,-0.0000325521
559091.3700242860,0.0688171387,0.0006103516,-9.8146057132,-0.0003146701,0.0000217014,-0.0000434028
559091.3800242860,0.0688171387,-0.0073242188,-9.8146057132,0.0001736111,-0.0000108507,-0.0000325521
559091.3900242860,0.0668334961,-0.0015258789,-9.8146057132,-0.0002495660,-0.0000108507,-0.0000434028
559091.4000242860,0.0672912598,-0.0079345703,-9.8139953616,0.0000976562,0.0000217014,-0.0000434028
559091.4100242860,0.0694274902,0.0009155273,-9.8149108890,-0.0002061632,-0.0000325521,-0.0000325521
559091.4200242860,0.0686645508,-0.0076293945,-9.8144531253,0.0001085069,-0.0000000000,-0.0000108507
559091.4300242860,0.0674438477,-0.0012207031,-9.8149108890,-0.0001953125,-0.0000000000,-0.0000325521
559091.4400242870,0.0662231445,-0.0074768066,-9.8138427738,0.0000217014,-0.0000434028,-0.0000434028
559091.4500242870,0.0689697266,0.0001525879,-9.8150634769,-0.0001844618,0.0000325521,-0.0000434028
559091.4600242870,0.0688171387,-0.0083923340,-9.8144531253,0.0000217014,0.0000325521,-0.0000542535
559091.4700242870,0.0671386719,-0.0007629395,-9.8147583011,-0.0001085069,-0.0000325521,-0.0000325521
559091.4800242870,0.0666809082,-0.0070190430,-9.8146057132,-0.0000651042,-0.0000325521,-0.0000217014
559091.4900242870,0.0683593750,-0.0016784668,-9.8144531253,-0.0000217014,0.0000434028,-0.0000325521
559091.5000242870,0.0689697266,-0.0047302246,-9.8146057132,-0.0001953125,0.0000217014,-0.0000325521
559091.5100242870,0.0675964355,-0.0042724609,-9.8144531253,0.0001193576,-0.0000000000,-0.0000325521
559091.5200242870,0.0672912598,-0.0036621094,-9.8149108890,-0.0003038194,-0.0000542535,-0.0000325521
559091.5300242871,0.0686645508,-0.0048828125,-9.8147583011,0.0001844618,0.0000108507,-0.0000434028
559091.5400242870,0.0682067871,-0.0024414063,-9.8139953616,-0.0002712674,-0.0000000000,-0.0000325521
559091.5500242870,0.0675964355,-0.0059509277,-9.8146057132,0.0001736111,0.0000108507,-0.0000108507
559091.5600242870,0.0679016113,-0.0027465820,-9.8143005374,-0.0002712674,-0.0000000000,-0.0000434028
559091.5700242870,0.0677490234,-0.0068664551,-9.8146057132,0.0001736111,0.0000325521,-0.0000325521
559091.5800242870,0.0677490234,0.0001525879,-9.8150634769,-0.0002712674,-0.0000000000,-0.0000434028
559091.5900242870,0.0682067871,-0.0086975098,-9.8138427738,0.0000434028,-0.0000108507,-0.0000325521
559091.6000242870,0.0675964355,-0.0003051758,-9.8152160648,-0.0000651042,-0.0000651042,-0.0000325521
559091.6100242870,0.0682067871,-0.0061035156,-9.8150634769,-0.0001953125,0.0000108507,-0.0000434028
559091.6200242870,0.0697326660,-0.0036621094,-9.8136901859,0.0001193576,0.0000108507,-0.0000108507
559091.6300242870,0.0671386719,-0.0030517578,-9.8147583011,-0.0002929687,0.0000325521,-0.0000325521
559091.6400242870,0.0671386719,-0.0071716309,-9.8146057132,0.0002170139,-0.0000325521,-0.0000434028
559091.6500242871,0.0675964355,-0.0009155273,-9.8135375980,-0.0003038194,-0.0000108507,-0.0000542535
559091.6600242869,0.0685119629,-0.0076293945,-9.8152160648,0.0001410590,-0.0000108507,-0.0000434028
559091.6700242870,0.0688171387,-0.0006103516,-9.8152160648,-0.0002061632,0.0000434028,-0.0000434028
559091.6800242870,0.0671386719,-0.0073242188,-9.8130798343,-0.0000542535,-0.0000000000,-0.0000217014
559091.6900242870,0.0674438477,-0.0016784668,-9.8146057132,0.0000434028,-0.0000000000,-0.0000217014
559091.7000242870,0.0689697266,-0.0030517578,-9.8152160648,-0.0002387153,0.0000325521,-0.0000434028
559091.7100242870,0.0679016113,-0.0064086914,-9.8138427738,0.0001410590,-0.0000542535,-0.0000325521
559091.7200242870,0.0672912598,-0.0018310547,-9.8146057132,-0.0002278646,-0.0000000000,-0.0000542535
559091.7300242870,0.0683593750,-0.0064086914,-9.8147583011,-0.0000108507,0.0000434028,-0.0000325521
559091.7400242870,0.0685119629,-0.0019836426,-9.8144531253,0.0000000000,-0.0000434028,-0.0000434028
559091.7500242870,0.0682067871,-0.0045776367,-9.8144531253,-0.0002387153,-0.0000000000,-0.0000325521
559091.7600242870,0.0677490234,-0.0048828125,-9.8139953616,0.0001736111,-0.0000000000,-0.0000325521
559091.7700242870,0.0669860840,-0.0012207031,-9.8141479495,-0.0001953125,-0.0000000000,-0.0000325521
559091.7800242871,0.0680541992,-0.0070190430,-9.8146057132,-0.0000542535,0.0000217014,-0.0000434028
559091.7900242870,0.0675964355,-0.0041198730,-9.8150634769,0.0000108507,-0.0000325521,-0.0000325521
559091.8000242870,0.0683593750,-0.0018310547,-9.8143005374,-0.0002061632,0.0000325521,-0.0000325521
559091.8100242870,0.0679016113,-0.0065612793,-9.8143005374,0.0000217014,-0.0000000000,-0.0000217014
559091.8200242870,0.0674438477,-0.0033569336,-9.8149108890,0.0000217014,-0.0000000000,-0.0000434028
559091.8300242870,0.0666809082,-0.0030517578,-9.8147583011,-0.0001627604,-0.0000108507,-0.0000434028
559091.8400242870,0.0685119629,-0.0062561035,-9.8146057132,-0.0000108507,0.0000217014,-0.0000434028
559091.8500242870,0.0685119629,-0.0022888184,-9.8143005374,-0.0000217014,-0.0000434028,-0.0000325521
559091.8600242870,0.0672912598,-0.0036621094,-9.8141479495,-0.0001519097,0.0000217014,-0.0000325521
559091.8700242870,0.0674438477,-0.0067138672,-9.8144531253,-0.0000108507,-0.0000108507,-0.0000325521
559091.8800242870,0.0683593750,-0.0035095215,-9.8146057132,-0.0000325521,0.0000108507,-0.0000325521
559091.8900242870,0.0686645508,-0.0021362305,-9.8143005374,-0.0001193576,-0.0000000000,-0.0000217014
559091.9000242871,0.0675964355,-0.0044250488,-9.8146057132,0.0000000000,-0.0000108507,-0.0000434028
559091.9100242869,0.0671386719,-0.0048828125,-9.8147583011,-0.0000325521,-0.0000000000,-0.0000325521
559091.9200242870,0.0675964355,-0.0042724609,-9.8141479495,-0.0001627604,0.0000325521,-0.0000325521
559091.9300242870,0.0689697266,-0.0044250488,-9.8144531253,-0.0000108507,-0.0000325521,-0.0000434028
559091.9400242870,0.0677490234,-0.0036621094,-9.8136901859,-0.0000108507,-0.0000000000,-0.0000217014
559091.9500242870,0.0668334961,-0.0035095215,-9.8141479495,-0.0001410590,-0.0000000000,-0.0000325521
559091.9600242870,0.0680541992,-0.0053405762,-9.8139953616,-0.0000217014,-0.0000000000,-0.0000325521
559091.9700242870,0.0689697266,-0.0032043457,-9.8138427738,-0.0000108507,-0.0000108507,-0.0000542535
559091.9800242870,0.0679016113,-0.0033569336,-9.8149108890,-0.0001410590,-0.0000000000,-0.0000542535
559091.9900242870,0.0672912598,-0.0050354004,-9.8147583011,-0.0000542535,-0.0000108507,-0.0000325521
559092.0000242870,0.0680541992,-0.0030517578,-9.8147583011,-0.0000217014,-0.0000000000,-0.0000217014
559092.0100242870,0.0680541992,-0.0032043457,-9.8150634769,-0.0001085069,-0.0000000000,-0.0000325521
559092.0200242870,0.0674438477,-0.0057983398,-9.8146057132,-0.0000434028,0.0000108507,-0.0000325521
559092.0300242871,0.0672912598,-0.0035095215,-9.8146057132,-0.0000325521,-0.0000108507,-0.0000542535
559092.0400242870,0.0669860840,-0.0021362305,-9.8147583011,-0.0001410590,0.0000108507,-0.0000434028
559092.0500242870,0.0694274902,-0.0045776367,-9.8147583011,-0.0000325521,-0.0000000000,-0.0000325521
559092.0600242870,0.0679016113,-0.0045776367,-9.8139953616,-0.0000434028,-0.0000000000,-0.0000325521
559092.0700242870,0.0672912598,-0.0048828125,-9.8147583011,-0.0001193576,-0.0000108507,-0.0000325521
559092.0800242870,0.0663757324,-0.0042724609,-9.8141479495,-0.0000325521,-0.0000000000,-0.0000325521
559092.0900242870,0.0688171387,-0.0035095215,-9.8147583011,0.0000000000,0.0000108507,-0.0000434028
559092.1000242870,0.0688171387,-0.0047302246,-9.8147583011,-0.0001085069,-0.0000108507,-0.0000325521
559092.1100242870,0.0662231445,-0.0053405762,-9.8147583011,-0.0000542535,0.0000108507,-0.0000542535
559092.1200242870,0.0662231445,-0.0032043457,-9.8141479495,-0.0000542535,-0.0000000000,-0.0000325521
559092.1300242870,0.0695800781,-0.0028991699,-9.8138427738,-0.0000759549,0.0000108507,-0.0000217014
559092.1400242870,0.0683593750,-0.0059509277,-9.8144531253,-0.0000325521,-0.0000108507,-0.0000325521
559092.1500242871,0.0668334961,-0.0041198730,-9.8143005374,-0.0000217014,0.0000217014,-0.0000325521
559092.1600242869,0.0682067871,-0.0027465820,-9.8146057132,-0.0001085069,-0.0000000000,-0.0000542535
559092.1700242870,0.0691223145,-0.0042724609,-9.8144531253,-0.0000434028,-0.0000000000,-0.0000325521
559092.1800242870,0.0675964355,-0.0053405762,-9.8149108890,-0.0000325521,-0.0000108507,-0.0000434028
559092.1900242870,0.0671386719,-0.0036621094,-9.8144531253,-0.0001193576,0.0000217014,-0.0000434028
559092.2000242870,0.0680541992,-0.0039672852,-9.8146057132,-0.0000434028,-0.0000000000,-0.0000325521
559092.2100242870,0.0691223145,-0.0036621094,-9.8143005374,-0.0000108507,-0.0000108507,-0.0000325521
559092.2200242870,0.0679016113,-0.0045776367,-9.8146057132,-0.0000651042,-0.0000000000,-0.0000542535
559092.2300242870,0.0682067871,-0.0042724609,-9.8146057132,-0.0000651042,-0.0000000000,-0.0000217014
559092.2400242870,0.0685119629,-0.0035095215,-9.8144531253,-0.0000434028,-0.0000000000,-0.0000434028
559092.2500242870,0.0688171387,-0.0039672852,-9.8141479495,-0.0000976562,-0.0000108507,-0.0000434028
559092.2600242870,0.0669860840,-0.0050354004,-9.8143005374,-0.0000651042,0.0000108507,-0.0000542535
559092.2700242870,0.0675964355,-0.0041198730,-9.8143005374,-0.0000434028,-0.0000000000,-0.0000217014
559092.2800242871,0.0683593750,-0.0032043457,-9.8141479495,-0.0000651042,0.0000108507,-0.0000434028
559092.2900242870,0.0680541992,-0.0041198730,-9.8144531253,-0.0000217014,-0.0000325521,-0.0000325521
559092.3000242870,0.0668334961,-0.0041198730,-9.8144531253,-0.0000434028,0.0000325521,-0.0000217014
559092.3100242870,0.0671386719,-0.0048828125,-9.8152160648,-0.0000976562,-0.0000000000,-0.0000434028
559092.3200242870,0.0683593750,-0.0045776367,-9.8146057132,-0.0000542535,0.0000217014,-0.0000325521
559092.3300242870,0.0685119629,-0.0024414063,-9.8141479495,-0.0000651042,-0.0000542535,-0.0000325521
559092.3400242870,0.0672912598,-0.0032043457,-9.8141479495,-0.0000542535,0.0000217014,-0.0000217014
559092.3500242870,0.0675964355,-0.0054931641,-9.8144531253,-0.0000108507,-0.0000108507,-0.0000325521
559092.3600242870,0.0677490234,-0.0044250488,-9.8144531253,-0.0000651042,0.0000217014,-0.0000434028
559092.3700242870,0.0675964355,-0.0022888184,-9.8147583011,-0.0001085069,-0.0000108507,-0.0000325521
559092.3800242870,0.0685119629,-0.0042724609,-9.8143005374,-0.0000217014,0.0000217014,-0.0000325521
559092.3900242870,0.0682067871,-0.0057983398,-9.8143005374,-0.0000651042,-0.0000434028,-0.0000325521
559092.4000242871,0.0675964355,-0.0041198730,-9.8139953616,-0.0001193576,0.0000217014,-0.0000325521
559092.4100242869,0.0671386719,-0.0028991699,-9.8143005374,-0.0000108507,-0.0000434028,-0.0000434028
559092.4200242870,0.0685119629,-0.0038146973,-9.8146057132,-0.0000217014,0.0000325521,-0.0000325521
559092.4300242870,0.0679016113,-0.0064086914,-9.8146057132,-0.0000651042,-0.0000000000,-0.0000434028
559092.4400242870,0.0682067871,-0.0045776367,-9.8149108890,-0.0000651042,-0.0000000000,-0.0000325521
559092.4500242870,0.0672912598,-0.0022888184,-9.8143005374,-0.0000759549,-0.0000108507,-0.0000325521
559092.4600242870,0.0679016113,-0.0041198730,-9.8147583011,-0.0000542535,0.0000108507,-0.0000434028
559092.4700242870,0.0683593750,-0.0062561035,-9.8143005374,-0.0000325521,-0.0000325521,-0.0000325521
559092.4800242870,0.0671386719,-0.0044250488,-9.8141479495,-0.0001085069,-0.0000000000,-0.0000434028
559092.4900242870,0.0677490234,-0.0030517578,-9.8143005374,-0.0000434028,-0.0000000000,-0.0000217014
559092.5000242870,0.0694274902,-0.0036621094,-9.8149108890,-0.0000108507,0.0000217014,-0.0000325521
559092.5100242880,0.0683593750,-0.0053405762,-9.8149108890,-0.0000759549,-0.0000108507,-0.0000434028
559092.5200242880,0.0677490234,-0.0051879883,-9.8144531253,-0.0001085069,-0.0000000000,-0.0000434028
559092.5300242880,0.0674438477,-0.0025939941,-9.8149108890,-0.0000434028,-0.0000108507,-0.0000217014
559092.5400242880,0.0679016113,-0.0027465820,-9.8146057132,-0.0000651042,-0.0000000000,-0.0000434028
559092.5500242880,0.0685119629,-0.0064086914,-9.8152160648,-0.0000434028,-0.0000000000,-0.0000217014
559092.5600242880,0.0677490234,-0.0047302246,-9.8147583011,-0.0000434028,-0.0000000000,-0.0000325521
559092.5700242880,0.0680541992,-0.0015258789,-9.8144531253,-0.0001085069,-0.0000000000,-0.0000325521
559092.5800242880,0.0675964355,-0.0036621094,-9.8133850101,-0.0000325521,-0.0000000000,-0.0000434028
559092.5900242880,0.0668334961,-0.0059509277,-9.8144531253,-0.0000434028,-0.0000000000,-0.0000217014
559092.6000242881,0.0682067871,-0.0056457520,-9.8162841800,-0.0001085069,-0.0000000000,-0.0000217014
559092.6100242879,0.0674438477,-0.0024414063,-9.8155212406,-0.0000651042,-0.0000000000,-0.0000217014
559092.6200242880,0.0689697266,-0.0016784668,-9.8149108890,0.0000000000,-0.0000000000,-0.0000434028
559092.6300242880,0.0689697266,-0.0062561035,-9.8143005374,-0.0000542535,-0.0000000000,-0.0000434028
559092.6400242880,0.0680541992,-0.0065612793,-9.8147583011,-0.0000759549,-0.0000000000,-0.0000542535
559092.6500242880,0.0657653809,-0.0006103516,-9.8139953616,-0.0000759549,-0.0000000000,-0.0000217014
559092.6600242880,0.0695800781,-0.0018310547,-9.8136901859,-0.0000325521,0.0000108507,-0.0000434028
559092.6700242880,0.0694274902,-0.0067138672,-9.8146057132,-0.0000325521,-0.0000434028,-0.0000217014
559092.6800242880,0.0668334961,-0.0057983398,-9.8144531253,-0.0001085069,0.0000108507,-0.0000325521
559092.6900242880,0.0666809082,-0.0015258789,-9.8141479495,-0.0000542535,0.0000651042,-0.0000542535
559092.7000242880,0.0692749023,-0.0032043457,-9.8153686527,0.0000108507,-0.0000434028,-0.0000434028
559092.7100242880,0.0695800781,-0.0065612793,-9.8147583011,-0.0000651042,-0.0000434028,-0.0000325521
559092.7200242880,0.0666809082,-0.0057983398,-9.8144531253,-0.0001193576,-0.0000000000,-0.0000434028
559092.7300242879,0.0660705566,-0.0021362305,-9.8146057132,-0.0000759549,0.0000325521,-0.0000325521
559092.7400242880,0.0697326660,-0.0025939941,-9.8144531253,-0.0000217014,0.0000108507,-0.0000434028
559092.7500242880,0.0706481934,-0.0062561035,-9.8143005374,-0.0000434028,-0.0000108507,-0.0000217014
559092.7600242880,0.0656127930,-0.0059509277,-9.8153686527,-0.0000759549,-0.0000542535,-0.0000325521
559092.7700242880,0.0668334961,-0.0019836426,-9.8139953616,-0.0000976562,0.0000325521,-0.0000434028
559092.7800242880,0.0703430176,-0.0035095215,-9.8141479495,-0.0000434028,0.0000542535,-0.0000434028
559092.7900242880,0.0691223145,-0.0048828125,-9.8147583011,-0.0000542535,-0.0000434028,-0.0000325521
559092.8000242880,0.0669860840,-0.0048828125,-9.8144531253,-0.0000976562,-0.0000542535,-0.0000325521
559092.8100242880,0.0648498535,-0.0035095215,-9.8144531253,-0.0000434028,0.0000325521,-0.0000325521
559092.8200242880,0.0685119629,-0.0027465820,-9.8146057132,-0.0000325521,0.0000217014,-0.0000325521
559092.8300242880,0.0703430176,-0.0047302246,-9.8149108890,-0.0000759549,-0.0000542535,-0.0000434028
559092.8400242880,0.0695800781,-0.0053405762,-9.8144531253,-0.0000542535,0.0000108507,-0.0000542535
559092.8500242881,0.0656127930,-0.0036621094,-9.8143005374,-0.0000759549,0.0000108507,-0.0000325521
559092.8600242879,0.0662231445,-0.0039672852,-9.8149108890,-0.0000651042,-0.0000325521,-0.0000434028
559092.8700242880,0.0689697266,-0.0033569336,-9.8139953616,-0.0000325521,-0.0000000000,-0.0000217014
559092.8800242880,0.0695800781,-0.0041198730,-9.8139953616,-0.0000434028,0.0000108507,-0.0000325521
559092.8900242880,0.0685119629,-0.0044250488,-9.8143005374,-0.0000434028,-0.0000325521,-0.0000325521
559092.9000242880,0.0669860840,-0.0050354004,-9.8153686527,-0.0000434028,-0.0000000000,-0.0000325521
559092.9100242880,0.0675964355,-0.0027465820,-9.8146057132,-0.0000759549,0.0000108507,-0.0000542535
559092.9200242880,0.0704956055,-0.0044250488,-9.8149108890,-0.0000542535,0.0000108507,-0.0000434028
559092.9300242880,0.0675964355,-0.0054931641,-9.8149108890,-0.0000542535,-0.0000542535,-0.0000217014
559092.9400242880,0.0657653809,-0.0028991699,-9.8143005374,-0.0000651042,0.0000108507,-0.0000325521
559092.9500242880,0.0683593750,-0.0035095215,-9.8141479495,-0.0000434028,-0.0000000000,-0.0000434028
559092.9600242880,0.0682067871,-0.0048828125,-9.8146057132,-0.0000217014,0.0000434028,-0.0000325521
559092.9700242880,0.0683593750,-0.0039672852,-9.8139953616,-0.0000976562,-0.0000000000,-0.0000325521
559092.9800242879,0.0674438477,-0.0044250488,-9.8144531253,-0.0000976562,-0.0000000000,-0.0000542535
559092.9900242880,0.0660705566,-0.0038146973,-9.8147583011,-0.0000434028,-0.0000000000,-0.0000434028
559093.0000242880,0.0686645508,-0.0041198730,-9.8143005374,-0.0000434028,-0.0000000000,-0.0000434028
559093.0100242880,0.0691223145,-0.0042724609,-9.8149108890,-0.0000651042,-0.0000000000,-0.0000217014
559093.0200242880,0.0677490234,-0.0048828125,-9.8146057132,-0.0000434028,-0.0000325521,-0.0000217014
559093.0300242880,0.0666809082,-0.0032043457,-9.8141479495,-0.0000542535,0.0000325521,-0.0000325521
559093.0400242880,0.0680541992,-0.0042724609,-9.8146057132,-0.0000434028,-0.0000000000,-0.0000325521
559093.0500242880,0.0691223145,-0.0048828125,-9.8144531253,-0.0000542535,-0.0000000000,-0.0000325521
559093.0600242880,0.0680541992,-0.0036621094,-9.8144531253,-0.0000976562,-0.0000108507,-0.0000434028
559093.0700242880,0.0671386719,-0.0044250488,-9.8149108890,-0.0000434028,-0.0000000000,-0.0000325521
559093.0800242880,0.0675964355,-0.0039672852,-9.8146057132,-0.0000108507,0.0000108507,-0.0000325521
559093.0900242880,0.0701904297,-0.0038146973,-9.8144531253,-0.0000651042,-0.0000000000,-0.0000325521
559093.1000242881,0.0669860840,-0.0042724609,-9.8143005374,-0.0000542535,-0.0000108507,-0.0000434028
559093.1100242879,0.0660705566,-0.0039672852,-9.8147583011,-0.0000542535,0.0000217014,-0.0000434028
559093.1200242880,0.0689697266,-0.0044250488,-9.8141479495,-0.0000759549,-0.0000000000,-0.0000434028
559093.1300242880,0.0698852539,-0.0041198730,-9.8141479495,-0.0000325521,-0.0000108507,-0.0000325521
559093.1400242880,0.0674438477,-0.0039672852,-9.8143005374,-0.0000434028,-0.0000000000,-0.0000217014
559093.1500242880,0.0663757324,-0.0036621094,-9.8152160648,-0.0000434028,-0.0000000000,-0.0000325521
559093.1600242880,0.0674438477,-0.0039672852,-9.8141479495,-0.0000217014,0.0000217014,-0.0000325521
559093.1700242880,0.0692749023,-0.0045776367,-9.8146057132,-0.0000759549,-0.0000108507,-0.0000325521
559093.1800242880,0.0675964355,-0.0041198730,-9.8147583011,-0.0000651042,0.0000108507,-0.0000434028
559093.1900242880,0.0665283203,-0.0036621094,-9.8147583011,-0.0000542535,-0.0000000000,-0.0000325521
559093.2000242880,0.0682067871,-0.0038146973,-9.8143005374,-0.0000542535,0.0000108507,-0.0000325521
559093.2100242880,0.0680541992,-0.0044250488,-9.8144531253,-0.0000434028,-0.0000108507,-0.0000325521
559093.2200242880,0.0677490234,-0.0042724609,-9.8143005374,-0.0000325521,-0.0000000000,-0.0000217014
559093.2300242879,0.0666809082,-0.0036621094,-9.8147583011,-0.0000976562,-0.0000000000,-0.0000325521
559093.2400242880,0.0680541992,-0.0042724609,-9.8146057132,0.0000000000,-0.0000000000,-0.0000217014
559093.2500242880,0.0682067871,-0.0042724609,-9.8143005374,-0.0001844618,-0.0000000000,-0.0000434028
559093.2600242880,0.0671386719,-0.0032043457,-9.8144531253,0.0000108507,-0.0000108507,-0.0000325521
559093.2700242880,0.0674438477,-0.0045776367,-9.8146057132,-0.0001302083,-0.0000000000,-0.0000217014
559093.2800242880,0.0679016113,-0.0022888184,-9.8147583011,0.0000108507,-0.0000000000,-0.0000325521
559093.2900242880,0.0691223145,-0.0064086914,-9.8144531253,-0.0001410590,-0.0000000000,-0.0000434028
559093.3000242880,0.0680541992,-0.0007629395,-9.8149108890,0.0000108507,-0.0000000000,-0.0000434028
559093.3100242880,0.0666809082,-0.0064086914,-9.8141479495,-0.0001519097,-0.0000000000,-0.0000325521
559093.3200242880,0.0666809082,-0.0025939941,-9.8149108890,0.0000325521,0.0000108507,-0.0000217014
559093.3300242880,0.0688171387,-0.0067138672,-9.8139953616,-0.0001844618,-0.0000108507,-0.0000217014
559093.3400242880,0.0683593750,-0.0015258789,-9.8149108890,0.0000434028,-0.0000325521,-0.0000325521
559093.3500242881,0.0668334961,-0.0054931641,-9.8138427738,-0.0001519097,0.0000217014,-0.0000325521
559093.3600242879,0.0682067871,-0.0027465820,-9.8146057132,0.0000651042,-0.0000000000,-0.0000434028
559093.3700242880,0.0694274902,-0.0067138672,-9.8139953616,-0.0001844618,-0.0000000000,-0.0000434028
559093.3800242880,0.0674438477,-0.0015258789,-9.8155212406,0.0000108507,-0.0000000000,-0.0000325521
559093.3900242880,0.0675964355,-0.0062561035,-9.8141479495,-0.0001519097,0.0000108507,-0.0000325521
559093.4000242880,0.0682067871,-0.0028991699,-9.8150634769,0.0000434028,-0.0000000000,-0.0000325521
559093.4100242880,0.0689697266,-0.0065612793,-9.8136901859,-0.0001627604,0.0000108507,-0.0000325521
559093.4200242880,0.0671386719,-0.0021362305,-9.8147583011,0.0000651042,-0.0000000000,-0.0000325521
559093.4300242880,0.0669860840,-0.0048828125,-9.8146057132,-0.0002061632,-0.0000000000,-0.0000434028
559093.4400242880,0.0674438477,-0.0036621094,-9.8150634769,0.0000976562,0.0000108507,-0.0000325521
559093.4500242880,0.0682067871,-0.0048828125,-9.8144531253,-0.0002495660,-0.0000000000,-0.0000434028
559093.4600242880,0.0680541992,-0.0045776367,-9.8146057132,0.0001193576,-0.0000000000,0.0000000000
559093.4700242880,0.0682067871,-0.0030517578,-9.8153686527,-0.0003038194,-0.0000000000,-0.0000325521
559093.4800242879,0.0671386719,-0.0045776367,-9.8139953616,0.0002170139,-0.0000000000,-0.0000325521
559093.4900242880,0.0686645508,-0.0025939941,-9.8146057132,-0.0002929687,0.0000108507,-0.0000542535
559093.5000242880,0.0685119629,-0.0054931641,-9.8138427738,0.0001410590,-0.0000108507,-0.0000434028
559093.5100242880,0.0669860840,-0.0028991699,-9.8149108890,-0.0002929687,0.0000325521,-0.0000325521
559093.5200242880,0.0677490234,-0.0048828125,-9.8136901859,0.0001410590,-0.0000325521,-0.0000108507
559093.5300242880,0.0682067871,-0.0030517578,-9.8147583011,-0.0003038194,0.0000217014,-0.0000434028
559093.5400242880,0.0679016113,-0.0061035156,-9.8143005374,0.0001736111,-0.0000434028,-0.0000325521
559093.5500242880,0.0682067871,-0.0021362305,-9.8146057132,-0.0003038194,0.0000108507,-0.0000434028
559093.5600242880,0.0666809082,-0.0054931641,-9.8147583011,0.0002170139,-0.0000108507,-0.0000542535
559093.5700242880,0.0682067871,-0.0030517578,-9.8139953616,-0.0003038194,0.0000434028,-0.0000325521
559093.5800242890,0.0680541992,-0.0062561035,-9.8141479495,0.0001193576,-0.0000325521,-0.0000325521
559093.5900242890,0.0663757324,-0.0030517578,-9.8139953616,-0.0002929687,0.0000108507,-0.0000325521
559093.6000242890,0.0672912598,-0.0041198730,-9.8144531253,0.0000868056,-0.0000000000,-0.0000217014
559093.6100242890,0.0682067871,-0.0054931641,-9.8147583011,-0.0001410590,-0.0000325521,-0.0000217014
559093.6200242890,0.0683593750,-0.0019836426,-9.8149108890,-0.0000108507,0.0000108507,-0.0000434028
559093.6300242890,0.0682067871,-0.0065612793,-9.8139953616,-0.0001085069,-0.0000000000,-0.0000325521
559093.6400242890,0.0669860840,-0.0010681152,-9.8152160648,-0.0000325521,-0.0000108507,-0.0000325521
559093.6500242890,0.0675964355,-0.0073242188,-9.8141479495,-0.0001302083,0.0000108507,-0.0000325521
559093.6600242890,0.0692749023,-0.0021362305,-9.8149108890,-0.0000108507,0.0000542535,-0.0000434028
559093.6700242891,0.0669860840,-0.0061035156,-9.8139953616,-0.0001519097,-0.0000434028,-0.0000325521
559093.6800242889,0.0674438477,-0.0018310547,-9.8152160648,0.0000651042,-0.0000542535,-0.0000217014
559093.6900242890,0.0694274902,-0.0057983398,-9.8143005374,-0.0001953125,0.0000108507,-0.0000325521
559093.7000242890,0.0683593750,-0.0033569336,-9.8146057132,0.0001193576,0.0000434028,-0.0000325521
559093.7100242890,0.0675964355,-0.0036621094,-9.8143005374,-0.0003255208,0.0000108507,-0.0000434028
559093.7200242890,0.0677490234,-0.0054931641,-9.8149108890,0.0001736111,-0.0000542535,-0.0000434028
559093.7300242890,0.0683593750,-0.0018310547,-9.8150634769,-0.0003363715,-0.0000000000,-0.0000325521
559093.7400242890,0.0683593750,-0.0067138672,-9.8143005374,0.0002278646,0.0000108507,-0.0000434028
559093.7500242890,0.0683593750,-0.0016784668,-9.8147583011,-0.0003255208,0.0000651042,-0.0000325521
559093.7600242890,0.0685119629,-0.0065612793,-9.8139953616,0.0002061632,-0.0000542535,-0.0000434028
559093.7700242890,0.0686645508,-0.0015258789,-9.8146057132,-0.0003580729,-0.0000108507,-0.0000434028
559093.7800242890,0.0682067871,-0.0064086914,-9.8143005374,0.0002278646,0.0000108507,-0.0000325521
559093.7900242890,0.0683593750,-0.0007629395,-9.8150634769,-0.0003797743,0.0000868056,-0.0000325521
559093.8000242891,0.0672912598,-0.0076293945,-9.8132324222,0.0002170139,-0.0000434028,-0.0000434028
559093.8100242889,0.0689697266,-0.0003051758,-9.8152160648,-0.0003255208,-0.0000108507,-0.0000217014
559093.8200242890,0.0686645508,-0.0080871582,-9.8141479495,0.0001844618,-0.0000325521,-0.0000325521
559093.8300242890,0.0662231445,-0.0004577637,-9.8143005374,-0.0002929687,0.0000759549,-0.0000325521
559093.8400242890,0.0677490234,-0.0079345703,-9.8141479495,0.0001410590,0.0000434028,-0.0000434028
559093.8500242890,0.0688171387,-0.0003051758,-9.8147583011,-0.0003038194,-0.0000542535,-0.0000325521
559093.8600242890,0.0680541992,-0.0080871582,-9.8155212406,0.0001519097,-0.0000434028,-0.0000325521
559093.8700242890,0.0686645508,-0.0000000000,-9.8147583011,-0.0002278646,0.0000651042,-0.0000217014
559093.8800242890,0.0668334961,-0.0086975098,-9.8133850101,0.0000651042,0.0000108507,-0.0000325521
559093.8900242890,0.0679016113,-0.0000000000,-9.8143005374,-0.0000976562,-0.0000325521,-0.0000217014
559093.9000242890,0.0685119629,-0.0073242188,-9.8147583011,-0.0000325521,-0.0000542535,-0.0000434028
559093.9100242890,0.0662231445,-0.0028991699,-9.8138427738,-0.0000542535,0.0000325521,-0.0000325521
559093.9200242891,0.0682067871,-0.0062561035,-9.8138427738,-0.0000759549,0.0000325521,-0.0000434028
559093.9300242889,0.0675964355,-0.0016784668,-9.8162841800,0.0000000000,-0.0000000000,-0.0000217014
559093.9400242890,0.0677490234,-0.0050354004,-9.8152160648,-0.0001519097,-0.0000000000,-0.0000325521
559093.9500242890,0.0685119629,-0.0039672852,-9.8144531253,0.0000976562,-0.0000325521,-0.0000325521
559093.9600242890,0.0694274902,-0.0041198730,-9.8150634769,-0.0002495660,-0.0000108507,-0.0000217014
559093.9700242890,0.0683593750,-0.0030517578,-9.8152160648,0.0001302083,-0.0000000000,-0.0000325521
559093.9800242890,0.0672912598,-0.0036621094,-9.8141479495,-0.0002929687,0.0000325521,-0.0000542535
559093.9900242890,0.0683593750,-0.0056457520,-9.8139953616,0.0001193576,0.0000217014,-0.0000434028
559094.0000242890,0.0671386719,-0.0025939941,-9.8144531253,-0.0003146701,-0.0000325521,-0.0000434028
559094.0100242890,0.0682067871,-0.0053405762,-9.8150634769,0.0001953125,-0.0000542535,0.0000000000
559094.0200242890,0.0674438477,-0.0015258789,-9.8150634769,-0.0003146701,-0.0000000000,-0.0000325521
559094.0300242890,0.0680541992,-0.0073242188,-9.8139953616,0.0001844618,0.0000434028,-0.0000434028
559094.0400242890,0.0688171387,-0.0013732910,-9.8139953616,-0.0003363715,0.0000108507,-0.0000542535
559094.0500242891,0.0666809082,-0.0068664551,-9.8144531253,0.0001519097,-0.0000434028,-0.0000434028
559094.0600242889,0.0688171387,-0.0009155273,-9.8147583011,-0.0002821181,-0.0000325521,-0.0000325521
559094.0700242890,0.0691223145,-0.0082397461,-9.8132324222,0.0001519097,0.0000868056,-0.0000325521
559094.0800242890,0.0683593750,-0.0004577637,-9.8147583011,-0.0002821181,-0.0000108507,-0.0000325521
559094.0900242890,0.0669860840,-0.0074768066,-9.8143005374,0.0001410590,-0.0000759549,-0.0000434028
559094.1000242890,0.0683593750,0.0013732910,-9.8143005374,-0.0002170139,0.0000325521,-0.0000434028
559094.1100242890,0.0682067871,-0.0091552734,-9.8139953616,0.0000434028,0.0000542535,-0.0000434028
559094.1200242890,0.0677490234,-0.0013732910,-9.8149108890,-0.0001627604,-0.0000108507,-0.0000217014
559094.1300242890,0.0674438477,-0.0059509277,-9.8146057132,-0.0000434028,-0.0000542535,-0.0000325521
559094.1400242890,0.0688171387,-0.0016784668,-9.8149108890,0.0000108507,0.0000108507,-0.0000325521
559094.1500242890,0.0685119629,-0.0070190430,-9.8139953616,-0.0001519097,0.0000434028,-0.0000325521
559094.1600242890,0.0668334961,-0.0044250488,-9.8152160648,0.0001193576,-0.0000434028,-0.0000434028
559094.1700242891,0.0682067871,-0.0021362305,-9.8146057132,-0.0003363715,-0.0000000000,-0.0000434028
559094.1800242889,0.0701904297,-0.0050354004,-9.8143005374,0.0002061632,0.0000434028,-0.0000325521
559094.1900242890,0.0674438477,-0.0028991699,-9.8138427738,-0.0003580729,0.0000217014,-0.0000108507
559094.2000242890,0.0660705566,-0.0073242188,-9.8146057132,0.0001410590,-0.0000976562,-0.0000108507
559094.2100242890,0.0674438477,0.0003051758,-9.8147583011,-0.0002495660,0.0000434028,-0.0000434028
559094.2200242890,0.0683593750,-0.0083923340,-9.8127746585,0.0000976562,0.0000325521,-0.0000542535
559094.2300242890,0.0669860840,-0.0015258789,-9.8155212406,-0.0000651042,-0.0000651042,-0.0000325521
559094.2400242890,0.0680541992,-0.0071716309,-9.8139953616,-0.0001410590,0.0000325521,-0.0000434028
559094.2500242890,0.0689697266,-0.0032043457,-9.8139953616,0.0001193576,0.0000542535,-0.0000325521
559094.2600242890,0.0689697266,-0.0028991699,-9.8150634769,-0.0003038194,-0.0000434028,-0.0000325521
559094.2700242890,0.0680541992,-0.0061035156,-9.8141479495,0.0001844618,-0.0000108507,-0.0000108507
559094.2800242890,0.0674438477,-0.0019836426,-9.8141479495,-0.0003255208,0.0000108507,-0.0000434028
559094.2900242890,0.0675964355,-0.0061035156,-9.8146057132,0.0001736111,-0.0000108507,-0.0000434028
559094.3000242891,0.0685119629,-0.0000000000,-9.8152160648,-0.0002495660,0.0000217014,-0.0000542535
559094.3100242889,0.0686645508,-0.0090026855,-9.8136901859,0.0000976562,-0.0000325521,-0.0000325521
559094.3200242890,0.0668334961,0.0012207031,-9.8150634769,-0.0002170139,0.0000108507,-0.0000434028
559094.3300242890,0.0677490234,-0.0080871582,-9.8135375980,0.0000108507,0.0000108507,-0.0000217014
559094.3400242890,0.0692749023,-0.0024414063,-9.8146057132,0.0000434028,-0.0000325521,-0.0000325521
559094.3500242890,0.0677490234,-0.0042724609,-9.8149108890,-0.0002387153,0.0000217014,-0.0000434028
559094.3600242890,0.0677490234,-0.0059509277,-9.8136901859,0.0001302083,-0.0000434028,-0.0000434028
559094.3700242890,0.0686645508,-0.0015258789,-9.8141479495,-0.0002712674,0.0000434028,-0.0000434028
559094.3800242890,0.0682067871,-0.0053405762,-9.8152160648,0.0000217014,-0.0000000000,-0.0000325521
559094.3900242890,0.0683593750,-0.0035095215,-9.8147583011,-0.0000434028,0.0000108507,-0.0000217014
559094.4000242890,0.0688171387,-0.0050354004,-9.8139953616,-0.0001302083,-0.0000542535,-0.0000434028
559094.4100242890,0.0672912598,-0.0041198730,-9.8146057132,0.0000325521,-0.0000000000,-0.0000325521
559094.4200242891,0.0665283203,-0.0024414063,-9.8138427738,-0.0000434028,0.0000108507,-0.0000434028
559094.4300242889,0.0682067871,-0.0053405762,-9.8147583011,-0.0001193576,-0.0000000000,-0.0000542535
559094.4400242890,0.0674438477,-0.0053405762,-9.8143005374,-0.0000325521,-0.0000000000,-0.0000325521
559094.4500242890,0.0672912598,-0.0018310547,-9.8139953616,-0.0000976562,-0.0000000000,-0.0000325521
559094.4600242890,0.0672912598,-0.0036621094,-9.8149108890,-0.0001085069,-0.0000000000,-0.0000325521
559094.4700242890,0.0677490234,-0.0056457520,-9.8144531253,0.0000000000,0.0000217014,-0.0000217014
559094.4800242890,0.0677490234,-0.0030517578,-9.8153686527,-0.0000976562,-0.0000434028,-0.0000434028
559094.4900242890,0.0674438477,-0.0036621094,-9.8143005374,-0.0000759549,0.0000108507,-0.0000325521
559094.5000242890,0.0679016113,-0.0041198730,-9.8143005374,0.0000108507,-0.0000000000,-0.0000434028
559094.5100242890,0.0691223145,-0.0038146973,-9.8138427738,-0.0000976562,-0.0000000000,-0.0000434028
559094.5200242890,0.0679016113,-0.0059509277,-9.8141479495,-0.0001085069,-0.0000000000,-0.0000217014
559094.5300242890,0.0668334961,-0.0036621094,-9.8149108890,-0.0000217014,0.0000108507,-0.0000325521
559094.5400242890,0.0686645508,-0.0022888184,-9.8143005374,-0.0000651042,-0.0000000000,-0.0000325521
559094.5500242891,0.0686645508,-0.0056457520,-9.8138427738,-0.0000542535,0.0000108507,-0.0000434028
559094.5600242889,0.0686645508,-0.0051879883,-9.8141479495,-0.0000217014,-0.0000000000,-0.0000434028
559094.5700242890,0.0675964355,-0.0027465820,-9.8141479495,-0.0001193576,-0.0000000000,-0.0000434028
559094.5800242890,0.0669860840,-0.0041198730,-9.8139953616,-0.0000651042,0.0000108507,-0.0000325521
559094.5900242890,0.0686645508,-0.0056457520,-9.8144531253,-0.0000325521,-0.0000000000,-0.0000217014
559094.6000242890,0.0677490234,-0.0039672852,-9.8141479495,-0.0001085069,-0.0000000000,-0.0000217014
559094.6100242890,0.0680541992,-0.0033569336,-9.8139953616,-0.0000651042,0.0000108507,-0.0000325521
559094.6200242890,0.0675964355,-0.0038146973,-9.8144531253,0.0000108507,-0.0000108507,-0.0000325521
559094.6300242890,0.0686645508,-0.0045776367,-9.8146057132,-0.0000759549,0.0000108507,-0.0000325521
559094.6400242890,0.0679016113,-0.0057983398,-9.8143005374,-0.0001085069,-0.0000108507,-0.0000325521
559094.6500242890,0.0672912598,-0.0032043457,-9.8146057132,-0.0000542535,-0.0000000000,-0.0000325521
559094.6600242900,0.0675964355,-0.0028991699,-9.8147583011,-0.0000542535,-0.0000000000,-0.0000217014
559094.6700242900,0.0688171387,-0.0051879883,-9.8144531253,-0.0000759549,0.0000108507,-0.0000217014
559094.6800242900,0.0683593750,-0.0048828125,-9.8146057132,-0.0000217014,-0.0000434028,-0.0000325521
559094.6900242900,0.0677490234,-0.0022888184,-9.8141479495,-0.0000651042,0.0000217014,-0.0000542535
559094.7000242900,0.0686645508,-0.0038146973,-9.8149108890,-0.0000651042,-0.0000325521,-0.0000434028
559094.7100242900,0.0688171387,-0.0057983398,-9.8146057132,-0.0000325521,0.0000217014,-0.0000434028
559094.7200242900,0.0671386719,-0.0039672852,-9.8139953616,-0.0001193576,-0.0000108507,-0.0000434028
559094.7300242900,0.0679016113,-0.0032043457,-9.8144531253,-0.0000759549,0.0000325521,-0.0000217014
559094.7400242900,0.0675964355,-0.0047302246,-9.8147583011,0.0000000000,-0.0000108507,-0.0000325521
559094.7500242901,0.0683593750,-0.0045776367,-9.8143005374,-0.0000651042,0.0000217014,-0.0000434028
559094.7600242899,0.0677490234,-0.0050354004,-9.8146057132,-0.0000651042,-0.0000000000,-0.0000434028
559094.7700242900,0.0675964355,-0.0036621094,-9.8149108890,-0.0000325521,0.0000108507,-0.0000325521
559094.7800242900,0.0668334961,-0.0032043457,-9.8143005374,-0.0000759549,-0.0000108507,-0.0000434028
559094.7900242900,0.0679016113,-0.0048828125,-9.8147583011,-0.0000759549,0.0000108507,-0.0000217014
559094.8000242900,0.0679016113,-0.0042724609,-9.8141479495,-0.0000217014,-0.0000000000,-0.0000325521
559094.8100242900,0.0674438477,-0.0024414063,-9.8138427738,-0.0000651042,-0.0000000000,-0.0000325521
559094.8200242900,0.0679016113,-0.0039672852,-9.8147583011,-0.0000325521,0.0000217014,-0.0000325521
559094.8300242900,0.0680541992,-0.0048828125,-9.8147583011,-0.0000325521,-0.0000000000,-0.0000434028
559094.8400242900,0.0674438477,-0.0032043457,-9.8141479495,-0.0001193576,-0.0000000000,-0.0000325521
559094.8500242900,0.0668334961,-0.0041198730,-9.8147583011,-0.0000651042,-0.0000000000,-0.0000325521
559094.8600242900,0.0677490234,-0.0045776367,-9.8147583011,-0.0000325521,0.0000108507,0.0000000000
559094.8700242901,0.0701904297,-0.0044250488,-9.8147583011,-0.0000759549,-0.0000000000,-0.0000434028
559094.8800242899,0.0683593750,-0.0039672852,-9.8147583011,-0.0000542535,-0.0000000000,-0.0000325521
559094.8900242900,0.0671386719,-0.0036621094,-9.8143005374,-0.0000217014,-0.0000000000,-0.0000434028
559094.9000242900,0.0671386719,-0.0039672852,-9.8144531253,-0.0000976562,-0.0000000000,-0.0000325521
559094.9100242900,0.0672912598,-0.0047302246,-9.8147583011,-0.0000651042,0.0000108507,-0.0000434028
559094.9200242900,0.0677490234,-0.0041198730,-9.8146057132,-0.0000651042,-0.0000000000,-0.0000325521
559094.9300242900,0.0672912598,-0.0038146973,-9.8144531253,-0.0000651042,-0.0000000000,0.0000000000
559094.9400242900,0.0669860840,-0.0047302246,-9.8150634769,-0.0000434028,-0.0000000000,-0.0000325521
559094.9500242900,0.0672912598,-0.0044250488,-9.8143005374,-0.0000542535,0.0000108507,-0.0000542535
559094.9600242900,0.0691223145,-0.0036621094,-9.8144531253,-0.0000542535,-0.0000000000,-0.0000325521
559094.9700242900,0.0677490234,-0.0035095215,-9.8146057132,-0.0000651042,-0.0000000000,-0.0000217014
559094.9800242900,0.0682067871,-0.0036621094,-9.8146057132,-0.0000651042,-0.0000000000,-0.0000434028
559094.9900242900,0.0680541992,-0.0047302246,-9.8147583011,-0.0000759549,-0.0000000000,-0.0000217014
559095.0000242901,0.0689697266,-0.0041198730,-9.8144531253,-0.0000325521,-0.0000000000,-0.0000434028
559095.0100242899,0.0679016113,-0.0030517578,-9.8141479495,-0.0000434028,-0.0000000000,-0.0000434028
559095.0200242900,0.0669860840,-0.0042724609,-9.8144531253,-0.0000434028,-0.0000325521,-0.0000434028
559095.0300242900,0.0688171387,-0.0050354004,-9.8138427738,-0.0000542535,0.0000325521,-0.0000542535
559095.0400242900,0.0683593750,-0.0032043457,-9.8150634769,-0.0001085069,-0.0000000000,-0.0000325521
559095.0500242900,0.0682067871,-0.0036621094,-9.8141479495,-0.0000651042,-0.0000000000,-0.0000325521
559095.0600242900,0.0663757324,-0.0048828125,-9.8144531253,-0.0000542535,-0.0000108507,-0.0000325521
559095.0700242900,0.0695800781,-0.0038146973,-9.8150634769,-0.0000542535,0.0000108507,-0.0000325521
559095.0800242900,0.0689697266,-0.0039672852,-9.8147583011,-0.0000651042,-0.0000000000,-0.0000325521
559095.0900242900,0.0675964355,-0.0032043457,-9.8146057132,-0.0000217014,-0.0000000000,-0.0000325521
559095.1000242900,0.0677490234,-0.0042724609,-9.8141479495,-0.0000651042,0.0000108507,-0.0000325521
559095.1100242900,0.0691223145,-0.0050354004,-9.8141479495,-0.0000759549,-0.0000000000,-0.0000325521
559095.1200242901,0.0674438477,-0.0033569336,-9.8146057132,-0.0000434028,-0.0000000000,-0.0000325521
559095.1300242899,0.0688171387,-0.0036621094,-9.8143005374,-0.0000434028,-0.0000000000,-0.0000434028
559095.1400242900,0.0666809082,-0.0051879883,-9.8149108890,-0.0000542535,0.0000217014,-0.0000434028
559095.1500242900,0.0686645508,-0.0048828125,-9.8147583011,-0.0000651042,-0.0000325521,-0.0000325521
559095.1600242900,0.0686645508,-0.0032043457,-9.8146057132,-0.0000325521,0.0000217014,-0.0000217014
559095.1700242900,0.0660705566,-0.0028991699,-9.8149108890,-0.0000759549,-0.0000325521,-0.0000434028
559095.1800242900,0.0677490234,-0.0050354004,-9.8146057132,-0.0000542535,0.0000108507,-0.0000217014
559095.1900242900,0.0686645508,-0.0045776367,-9.8146057132,-0.0000759549,-0.0000000000,-0.0000434028
559095.2000242900,0.0692749023,-0.0035095215,-9.8139953616,-0.0000651042,0.0000108507,0.0000000000
559095.2100242900,0.0665283203,-0.0041198730,-9.8144531253,-0.0000434028,-0.0000325521,-0.0000325521
559095.2200242900,0.0674438477,-0.0042724609,-9.8146057132,-0.0000434028,0.0000325521,-0.0000542535
559095.2300242900,0.0689697266,-0.0045776367,-9.8143005374,-0.0000976562,-0.0000000000,-0.0000325521
559095.2400242900,0.0688171387,-0.0038146973,-9.8146057132,-0.0000434028,-0.0000000000,-0.0000217014
559095.2500242901,0.0680541992,-0.0032043457,-9.8144531253,-0.0000651042,-0.0000325521,-0.0000325521
559095.2600242899,0.0662231445,-0.0050354004,-9.8149108890,-0.0000759549,0.0000217014,-0.0000217014
559095.2700242900,0.0689697266,-0.0048828125,-9.8144531253,-0.0000434028,-0.0000000000,-0.0000325521
559095.2800242900,0.0685119629,-0.0032043457,-9.8149108890,-0.0000542535,0.0000108507,-0.0000217014
559095.2900242900,0.0665283203,-0.0039672852,-9.8141479495,-0.0000542535,-0.0000108507,-0.0000434028
559095.3000242900,0.0668334961,-0.0047302246,-9.8141479495,-0.0000434028,0.0000108507,-0.0000325521
559095.3100242900,0.0698852539,-0.0039672852,-9.8152160648,-0.0000759549,-0.0000108507,-0.0000217014
559095.3200242900,0.0685119629,-0.0042724609,-9.8143005374,-0.0001085069,-0.0000000000,-0.0000434028
559095.3300242900,0.0669860840,-0.0044250488,-9.8147583011,-0.0000434028,-0.0000000000,-0.0000434028
559095.3400242900,0.0669860840,-0.0047302246,-9.8152160648,-0.0000434028,0.0000217014,-0.0000325521
559095.3500242900,0.0700378418,-0.0041198730,-9.8146057132,-0.0000651042,-0.0000000000,-0.0000542535
559095.3600242900,0.0689697266,-0.0044250488,-9.8141479495,-0.0000217014,-0.0000108507,-0.0000325521
559095.3700242901,0.0669860840,-0.0039672852,-9.8138427738,-0.0000542535,-0.0000108507,-0.0000325521
559095.3800242899,0.0666809082,-0.0041198730,-9.8141479495,-0.0001085069,0.0000434028,-0.0000325521
559095.3900242900,0.0692749023,-0.0042724609,-9.8149108890,-0.0000542535,-0.0000000000,-0.0000325521
559095.4000242900,0.0695800781,-0.0041198730,-9.8150634769,-0.0000542535,-0.0000000000,-0.0000434028
559095.4100242900,0.0660705566,-0.0039672852,-9.8149108890,-0.0000542535,-0.0000108507,-0.0000325521
559095.4200242900,0.0660705566,-0.0053405762,-9.8141479495,-0.0000217014,0.0000434028,-0.0000434028
559095.4300242900,0.0694274902,-0.0036621094,-9.8149108890,-0.0000542535,-0.0000000000,-0.0000434028
559095.4400242900,0.0689697266,-0.0044250488,-9.8149108890,-0.0000759549,-0.0000000000,0.0000000000
559095.4500242900,0.0666809082,-0.0039672852,-9.8141479495,-0.0000651042,-0.0000108507,-0.0000325521
559095.4600242900,0.0656127930,-0.0042724609,-9.8149108890,-0.0000542535,0.0000325521,-0.0000434028
559095.4700242900,0.0697326660,-0.0039672852,-9.8147583011,-0.0000759549,-0.0000000000,-0.0000325521
559095.4800242900,0.0685119629,-0.0039672852,-9.8143005374,-0.0000434028,-0.0000108507,-0.0000325521
559095.4900242900,0.0653076172,-0.0039672852,-9.8144531253,-0.0000325521,-0.0000108507,-0.0000542535
559095.5000242901,0.0669860840,-0.0047302246,-9.8143005374,-0.0001085069,0.0000325521,-0.0000325521
559095.5100242899,0.0703430176,-0.0039672852,-9.8138427738,-0.0000542535,-0.0000000000,-0.0000434028
559095.5200242900,0.0695800781,-0.0039672852,-9.8150634769,-0.0000651042,-0.0000000000,-0.0000325521
559095.5300242900,0.0669860840,-0.0041198730,-9.8143005374,-0.0000651042,-0.0000108507,0.0000000000
559095.5400242900,0.0660705566,-0.0039672852,-9.8146057132,-0.0000434028,0.0000325521,-0.0000434028
559095.5500242900,0.0698852539,-0.0035095215,-9.8143005374,-0.0000217014,-0.0000108507,-0.0000542535
559095.5600242900,0.0697326660,-0.0036621094,-9.8147583011,-0.0000651042,-0.0000000000,-0.0000217014
559095.5700242900,0.0663757324,-0.0044250488,-9.8143005374,-0.0000759549,-0.0000108507,-0.0000434028
559095.5800242900,0.0677490234,-0.0039672852,-9.8141479495,-0.0000651042,0.0000325521,-0.0000325521
559095.5900242900,0.0692749023,-0.0039672852,-9.8149108890,-0.0000651042,-0.0000108507,-0.0000325521
559095.6000242900,0.0700378418,-0.0041198730,-9.8138427738,-0.0000434028,-0.0000000000,-0.0000434028
559095.6100242900,0.0666809082,-0.0041198730,-9.8144531253,-0.0000651042,-0.0000108507,-0.0000325521
559095.6200242901,0.0682067871,-0.0039672852,-9.8147583011,-0.0000542535,0.0000108507,-0.0000325521
559095.6300242899,0.0692749023,-0.0033569336,-9.8149108890,-0.0000434028,-0.0000000000,-0.0000434028
559095.6400242900,0.0697326660,-0.0047302246,-9.8147583011,-0.0000542535,-0.0000000000,-0.0000325521
559095.6500242900,0.0671386719,-0.0038146973,-9.8143005374,-0.0000542535,-0.0000000000,-0.0000325521
559095.6600242900,0.0674438477,-0.0032043457,-9.8139953616,-0.0000651042,0.0000108507,-0.0000325521
559095.6700242900,0.0674438477,-0.0042724609,-9.8144531253,-0.0000434028,-0.0000000000,-0.0000217014
559095.6800242900,0.0680541992,-0.0045776367,-9.8146057132,-0.0000434028,-0.0000000000,-0.0000434028
559095.6900242900,0.0668334961,-0.0045776367,-9.8147583011,-0.0000542535,-0.0000000000,-0.0000325521
559095.7000242900,0.0665283203,-0.0033569336,-9.8149108890,-0.0000759549,0.0000108507,-0.0000325521
559095.7100242900,0.0695800781,-0.0035095215,-9.8143005374,-0.0000759549,-0.0000000000,-0.0000325521
559095.7200242900,0.0691223145,-0.0045776367,-9.8146057132,-0.0000325521,-0.0000000000,-0.0000434028
559095.7300242910,0.0671386719,-0.0045776367,-9.8149108890,-0.0000542535,-0.0000000000,-0.0000325521
559095.7400242910,0.0663757324,-0.0036621094,-9.8141479495,-0.0000651042,0.0000108507,-0.0000325521
559095.7500242910,0.0680541992,-0.0042724609,-9.8147583011,-0.0000217014,-0.0000000000,-0.0000434028
559095.7600242910,0.0689697266,-0.0047302246,-9.8143005374,-0.0000434028,-0.0000000000,-0.0000217014
559095.7700242910,0.0675964355,-0.0044250488,-9.8146057132,-0.0001085069,-0.0000108507,-0.0000434028
559095.7800242910,0.0662231445,-0.0032043457,-9.8141479495,-0.0000434028,0.0000217014,-0.0000325521
559095.7900242910,0.0686645508,-0.0036621094,-9.8146057132,-0.0000542535,-0.0000000000,-0.0000217014
559095.8000242910,0.0697326660,-0.0056457520,-9.8141479495,-0.0000651042,0.0000108507,-0.0000434028
559095.8100242910,0.0672912598,-0.0041198730,-9.8139953616,-0.0000434028,-0.0000108507,-0.0000434028
559095.8200242911,0.0668334961,-0.0038146973,-9.8150634769,-0.0000325521,0.0000108507,-0.0000325521
559095.8300242909,0.0683593750,-0.0041198730,-9.8149108890,-0.0000759549,-0.0000000000,-0.0000434028
559095.8400242910,0.0692749023,-0.0050354004,-9.8146057132,-0.0000651042,-0.0000000000,-0.0000325521
559095.8500242910,0.0675964355,-0.0045776367,-9.8146057132,-0.0000542535,-0.0000108507,-0.0000325521
559095.8600242910,0.0671386719,-0.0033569336,-9.8141479495,-0.0000759549,0.0000108507,-0.0000434028
559095.8700242910,0.0674438477,-0.0048828125,-9.8147583011,-0.0000434028,-0.0000000000,-0.0000434028
559095.8800242910,0.0695800781,-0.0048828125,-9.8150634769,-0.0000217014,-0.0000000000,-0.0000325521
559095.8900242910,0.0683593750,-0.0038146973,-9.8146057132,-0.0000759549,-0.0000108507,-0.0000325521
559095.9000242910,0.0665283203,-0.0044250488,-9.8141479495,-0.0000542535,-0.0000000000,-0.0000325521
559095.9100242910,0.0683593750,-0.0044250488,-9.8144531253,-0.0000651042,-0.0000000000,-0.0000434028
559095.9200242910,0.0694274902,-0.0047302246,-9.8141479495,-0.0000976562,-0.0000000000,-0.0000325521
559095.9300242910,0.0679016113,-0.0039672852,-9.8143005374,-0.0000651042,-0.0000000000,-0.0000217014
559095.9400242910,0.0672912598,-0.0038146973,-9.8146057132,-0.0000217014,-0.0000000000,-0.0000434028
559095.9500242911,0.0677490234,-0.0042724609,-9.8147583011,-0.0000542535,-0.0000000000,-0.0000434028
559095.9600242910,0.0686645508,-0.0050354004,-9.8152160648,-0.0000651042,-0.0000108507,-0.0000325521
559095.9700242910,0.0669860840,-0.0038146973,-9.8141479495,-0.0000651042,-0.0000000000,-0.0000434028
559095.9800242910,0.0677490234,-0.0028991699,-9.8141479495,-0.0000976562,0.0000217014,-0.0000325521
559095.9900242910,0.0680541992,-0.0042724609,-9.8147583011,-0.0000542535,-0.0000108507,-0.0000325521
559096.0000242910,0.0679016113,-0.0044250488,-9.8143005374,-0.0000325521,0.0000108507,-0.0000325521
559096.0100242910,0.0674438477,-0.0033569336,-9.8146057132,-0.0000759549,-0.0000000000,-0.0000217014
559096.0200242910,0.0669860840,-0.0038146973,-9.8143005374,-0.0000325521,0.0000108507,-0.0000542535
559096.0300242910,0.0685119629,-0.0041198730,-9.8144531253,-0.0000325521,-0.0000000000,-0.0000325521
559096.0400242910,0.0679016113,-0.0045776367,-9.8143005374,-0.0001085069,0.0000108507,-0.0000325521
559096.0500242910,0.0677490234,-0.0048828125,-9.8143005374,-0.0000759549,-0.0000000000,-0.0000325521
559096.0600242910,0.0672912598,-0.0032043457,-9.8146057132,-0.0000542535,0.0000108507,-0.0000434028
559096.0700242911,0.0671386719,-0.0033569336,-9.8147583011,-0.0000542535,-0.0000000000,-0.0000325521
559096.0800242909,0.0683593750,-0.0056457520,-9.8144531253,-0.0000542535,-0.0000000000,-0.0000325521
559096.0900242910,0.0682067871,-0.0041198730,-9.8149108890,-0.0000434028,-0.0000325521,-0.0000434028
559096.1000242910,0.0674438477,-0.0030517578,-9.8138427738,-0.0000976562,0.0000217014,-0.0000325521
559096.1100242910,0.0683593750,-0.0045776367,-9.8141479495,-0.0000325521,-0.0000000000,-0.0000325521
559096.1200242910,0.0679016113,-0.0045776367,-9.8144531253,-0.0000434028,-0.0000000000,-0.0000217014
559096.1300242910,0.0675964355,-0.0041198730,-9.8146057132,-0.0000976562,-0.0000108507,-0.0000325521
559096.1400242910,0.0682067871,-0.0041198730,-9.8144531253,-0.0000325521,0.0000217014,-0.0000325521
559096.1500242910,0.0683593750,-0.0039672852,-9.8146057132,-0.0000217014,-0.0000108507,-0.0000434028
559096.1600242910,0.0675964355,-0.0045776367,-9.8144531253,-0.0000759549,0.0000108507,-0.0000434028
559096.1700242910,0.0669860840,-0.0045776367,-9.8149108890,-0.0000759549,-0.0000000000,-0.0000434028
559096.1800242910,0.0675964355,-0.0033569336,-9.8146057132,-0.0000542535,-0.0000000000,-0.0000325521
559096.1900242910,0.0691223145,-0.0036621094,-9.8146057132,-0.0000759549,-0.0000000000,-0.0000217014
559096.2000242911,0.0679016113,-0.0054931641,-9.8143005374,-0.0000434028,-0.0000000000,-0.0000434028
559096.2100242910,0.0669860840,-0.0036621094,-9.8146057132,-0.0000542535,-0.0000000000,-0.0000434028
559096.2200242910,0.0680541992,-0.0032043457,-9.8143005374,-0.0000651042,0.0000108507,-0.0000325521
559096.2300242910,0.0688171387,-0.0045776367,-9.8147583011,-0.0000434028,-0.0000000000,-0.0000325521
559096.2400242910,0.0686645508,-0.0045776367,-9.8150634769,-0.0000759549,-0.0000000000,-0.0000217014
559096.2500242910,0.0669860840,-0.0039672852,-9.8143005374,-0.0001193576,0.0000108507,-0.0000325521
559096.2600242910,0.0679016113,-0.0039672852,-9.8146057132,-0.0000325521,-0.0000000000,-0.0000325521
559096.2700242910,0.0682067871,-0.0044250488,-9.8143005374,-0.0000325521,-0.0000000000,-0.0000325521
559096.2800242910,0.0683593750,-0.0050354004,-9.8146057132,-0.0000759549,-0.0000108507,-0.0000434028
559096.2900242910,0.0668334961,-0.0036621094,-9.8147583011,-0.0000325521,-0.0000108507,-0.0000434028
559096.3000242910,0.0685119629,-0.0027465820,-9.8147583011,-0.0000651042,0.0000217014,-0.0000325521
559096.3100242910,0.0691223145,-0.0041198730,-9.8144531253,-0.0000759549,-0.0000000000,-0.0000217014
559096.3200242911,0.0683593750,-0.0051879883,-9.8143005374,-0.0000542535,-0.0000108507,-0.0000434028
559096.3300242909,0.0659179688,-0.0041198730,-9.8144531253,-0.0000542535,-0.0000108507,-0.0000325521
559096.3400242910,0.0679016113,-0.0041198730,-9.8144531253,-0.0000434028,0.0000434028,-0.0000434028
559096.3500242910,0.0692749023,-0.0038146973,-9.8149108890,-0.0000434028,-0.0000108507,-0.0000542535
559096.3600242910,0.0682067871,-0.0045776367,-9.8143005374,-0.0000434028,-0.0000000000,-0.0000325521
559096.3700242910,0.0660705566,-0.0036621094,-9.8143005374,-0.0000759549,-0.0000000000,-0.0000217014
559096.3800242910,0.0677490234,-0.0044250488,-9.8141479495,-0.0000434028,0.0000108507,-0.0000325521
559096.3900242910,0.0708007813,-0.0038146973,-9.8146057132,-0.0000651042,-0.0000000000,-0.0000434028
559096.4000242910,0.0688171387,-0.0042724609,-9.8152160648,-0.0000542535,-0.0000108507,-0.0000434028
559096.4100242910,0.0663757324,-0.0045776367,-9.8147583011,-0.0000325521,-0.0000000000,-0.0000325521
559096.4200242910,0.0672912598,-0.0035095215,-9.8144531253,-0.0000542535,-0.0000000000,-0.0000325521
559096.4300242910,0.0691223145,-0.0042724609,-9.8144531253,-0.0000759549,0.0000108507,-0.0000325521
559096.4400242910,0.0672912598,-0.0047302246,-9.8139953616,-0.0000434028,-0.0000108507,-0.0000325521
559096.4500242911,0.0668334961,-0.0041198730,-9.8143005374,-0.0000976562,0.0000217014,-0.0000325521
559096.4600242910,0.0674438477,-0.0039672852,-9.8149108890,-0.0000651042,-0.0000000000,-0.0000434028
559096.4700242910,0.0694274902,-0.0044250488,-9.8147583011,-0.0000108507,-0.0000000000,-0.0000217014
559096.4800242910,0.0674438477,-0.0038146973,-9.8144531253,-0.0000651042,-0.0000000000,-0.0000325521
559096.4900242910,0.0660705566,-0.0048828125,-9.8143005374,-0.0000542535,-0.0000000000,-0.0000434028
559096.5000242910,0.0674438477,-0.0036621094,-9.8155212406,-0.0000542535,0.0000108507,-0.0000325521
559096.5100242910,0.0689697266,-0.0032043457,-9.8141479495,-0.0000759549,-0.0000000000,-0.0000217014
559096.5200242910,0.0686645508,-0.0045776367,-9.8141479495,-0.0000759549,-0.0000000000,-0.0000325521
559096.5300242910,0.0665283203,-0.0044250488,-9.8139953616,-0.0000434028,0.0000108507,-0.0000434028
559096.5400242910,0.0671386719,-0.0036621094,-9.8146057132,-0.0000542535,0.0000108507,-0.0000325521
559096.5500242910,0.0692749023,-0.0039672852,-9.8143005374,-0.0000325521,0.0000108507,-0.0000325521
559096.5600242910,0.0689697266,-0.0044250488,-9.8146057132,-0.0000542535,-0.0000000000,-0.0000325521
559096.5700242911,0.0665283203,-0.0041198730,-9.8146057132,-0.0000976562,-0.0000000000,-0.0000542535
559096.5800242909,0.0674438477,-0.0036621094,-9.8146057132,-0.0000542535,0.0000217014,-0.0000325521
559096.5900242910,0.0692749023,-0.0042724609,-9.8147583011,-0.0000651042,-0.0000000000,-0.0000217014
559096.6000242910,0.0682067871,-0.0044250488,-9.8147583011,-0.0000542535,-0.0000108507,-0.0000542535
559096.6100242910,0.0665283203,-0.0039672852,-9.8144531253,-0.0000651042,-0.0000000000,-0.0000325521
559096.6200242910,0.0671386719,-0.0044250488,-9.8146057132,-0.0000325521,0.0000217014,-0.0000542535
559096.6300242910,0.0692749023,-0.0032043457,-9.8141479495,-0.0000651042,-0.0000108507,-0.0000434028
559096.6400242910,0.0688171387,-0.0044250488,-9.8144531253,-0.0000651042,-0.0000000000,-0.0000217014
559096.6500242910,0.0668334961,-0.0047302246,-9.8144531253,-0.0000542535,-0.0000000000,-0.0000434028
559096.6600242910,0.0665283203,-0.0035095215,-9.8146057132,-0.0000759549,0.0000108507,-0.0000434028
559096.6700242910,0.0688171387,-0.0038146973,-9.8144531253,-0.0000542535,-0.0000000000,-0.0000325521
559096.6800242910,0.0688171387,-0.0050354004,-9.8144531253,-0.0000325521,-0.0000000000,-0.0000325521
559096.6900242910,0.0669860840,-0.0042724609,-9.8147583011,-0.0000434028,-0.0000000000,-0.0000434028
559096.7000242911,0.0663757324,-0.0032043457,-9.8149108890,-0.0000759549,0.0000108507,-0.0000434028
559096.7100242910,0.0685119629,-0.0038146973,-9.8138427738,-0.0000434028,-0.0000108507,-0.0000217014
559096.7200242910,0.0680541992,-0.0048828125,-9.8146057132,-0.0000759549,-0.0000000000,-0.0000217014
559096.7300242910,0.0668334961,-0.0044250488,-9.8147583011,-0.0000759549,-0.0000000000,-0.0000434028
559096.7400242910,0.0674438477,-0.0039672852,-9.8147583011,-0.0000325521,-0.0000000000,-0.0000434028
559096.7500242910,0.0685119629,-0.0032043457,-9.8147583011,-0.0000434028,-0.0000000000,-0.0000434028
559096.7600242910,0.0692749023,-0.0045776367,-9.8146057132,-0.0000542535,-0.0000000000,-0.0000325521
559096.7700242910,0.0666809082,-0.0047302246,-9.8147583011,-0.0000759549,-0.0000000000,-0.0000217014
559096.7800242910,0.0666809082,-0.0041198730,-9.8149108890,-0.0000651042,-0.0000000000,-0.0000217014
559096.7900242910,0.0686645508,-0.0033569336,-9.8144531253,-0.0000759549,-0.0000000000,-0.0000325521
559096.8000242920,0.0689697266,-0.0042724609,-9.8143005374,-0.0000325521,-0.0000000000,-0.0000434028
559096.8100242920,0.0674438477,-0.0036621094,-9.8143005374,-0.0000434028,-0.0000000000,-0.0000325521
559096.8200242920,0.0671386719,-0.0038146973,-9.8144531253,-0.0000542535,0.0000108507,-0.0000325521
559096.8300242920,0.0688171387,-0.0039672852,-9.8146057132,-0.0000434028,-0.0000000000,-0.0000325521
559096.8400242920,0.0679016113,-0.0036621094,-9.8143005374,-0.0000651042,-0.0000000000,-0.0000217014
559096.8500242920,0.0674438477,-0.0045776367,-9.8141479495,-0.0000759549,0.0000108507,-0.0000325521
559096.8600242920,0.0672912598,-0.0045776367,-9.8146057132,-0.0000434028,-0.0000108507,-0.0000325521
559096.8700242920,0.0691223145,-0.0041198730,-9.8147583011,-0.0000542535,-0.0000000000,-0.0000542535
559096.8800242920,0.0683593750,-0.0041198730,-9.8139953616,-0.0000542535,-0.0000000000,-0.0000325521
559096.8900242920,0.0679016113,-0.0048828125,-9.8139953616,-0.0000651042,-0.0000000000,-0.0000325521
559096.9000242919,0.0665283203,-0.0038146973,-9.8141479495,-0.0000651042,-0.0000000000,-0.0000434028
559096.9100242920,0.0689697266,-0.0041198730,-9.8143005374,-0.0000651042,-0.0000000000,-0.0000217014
559096.9200242920,0.0682067871,-0.0042724609,-9.8143005374,-0.0000651042,-0.0000000000,0.0000000000
559096.9300242920,0.0665283203,-0.0039672852,-9.8144531253,-0.0000759549,-0.0000000000,-0.0000434028
559096.9400242920,0.0672912598,-0.0042724609,-9.8149108890,-0.0000434028,0.0000108507,-0.0000325521
559096.9500242920,0.0679016113,-0.0039672852,-9.8146057132,-0.0000325521,0.0000108507,-0.0000434028
559096.9600242920,0.0692749023,-0.0042724609,-9.8147583011,-0.0000542535,-0.0000000000,-0.0000325521
559096.9700242920,0.0669860840,-0.0039672852,-9.8139953616,-0.0000759549,-0.0000000000,-0.0000325521
559096.9800242920,0.0672912598,-0.0039672852,-9.8141479495,-0.0000651042,-0.0000000000,-0.0000325521
559096.9900242920,0.0677490234,-0.0042724609,-9.8143005374,-0.0000542535,-0.0000000000,-0.0000217014
559097.0000242920,0.0688171387,-0.0039672852,-9.8141479495,-0.0000542535,-0.0000000000,-0.0000434028
559097.0100242920,0.0669860840,-0.0039672852,-9.8143005374,-0.0000759549,-0.0000000000,-0.0000434028
559097.0200242921,0.0675964355,-0.0039672852,-9.8150634769,-0.0000434028,-0.0000000000,-0.0000325521
559097.0300242919,0.0691223145,-0.0033569336,-9.8146057132,-0.0000651042,0.0000108507,0.0000000000
559097.0400242920,0.0698852539,-0.0039672852,-9.8146057132,-0.0000542535,-0.0000000000,-0.0000217014
559097.0500242920,0.0671386719,-0.0045776367,-9.8141479495,-0.0000976562,-0.0000000000,-0.0000325521
559097.0600242920,0.0662231445,-0.0038146973,-9.8147583011,-0.0000651042,-0.0000000000,-0.0000325521
559097.0700242920,0.0680541992,-0.0030517578,-9.8139953616,-0.0000434028,0.0000108507,-0.0000434028
559097.0800242920,0.0697326660,-0.0041198730,-9.8146057132,-0.0000325521,-0.0000000000,-0.0000434028
559097.0900242920,0.0680541992,-0.0051879883,-9.8147583011,-0.0000651042,-0.0000108507,-0.0000325521
559097.1000242920,0.0668334961,-0.0038146973,-9.8149108890,-0.0000651042,0.0000217014,-0.0000217014
559097.1100242920,0.0675964355,-0.0038146973,-9.8144531253,-0.0000325521,-0.0000000000,-0.0000217014
559097.1200242920,0.0689697266,-0.0042724609,-9.8146057132,-0.0000759549,-0.0000000000,-0.0000325521
559097.1300242920,0.0675964355,-0.0051879883,-9.8146057132,-0.0000542535,-0.0000000000,-0.0000434028
559097.1400242920,0.0669860840,-0.0042724609,-9.8146057132,-0.0000651042,0.0000108507,-0.0000325521
559097.1500242919,0.0680541992,-0.0030517578,-9.8144531253,-0.0000434028,-0.0000108507,-0.0000434028
559097.1600242920,0.0686645508,-0.0041198730,-9.8139953616,-0.0000217014,-0.0000000000,-0.0000217014
559097.1700242920,0.0674438477,-0.0048828125,-9.8143005374,-0.0000651042,-0.0000000000,-0.0000217014
559097.1800242920,0.0672912598,-0.0042724609,-9.8144531253,-0.0000976562,-0.0000000000,-0.0000325521
559097.1900242920,0.0675964355,-0.0033569336,-9.8146057132,-0.0000542535,0.0000108507,-0.0000542535
559097.2000242920,0.0686645508,-0.0038146973,-9.8146057132,-0.0000325521,-0.0000000000,-0.0000434028
559097.2100242920,0.0682067871,-0.0050354004,-9.8146057132,-0.0000434028,-0.0000000000,-0.0000325521
559097.2200242920,0.0669860840,-0.0045776367,-9.8147583011,-0.0000325521,-0.0000000000,-0.0000434028
559097.2300242920,0.0674438477,-0.0033569336,-9.8149108890,-0.0000542535,-0.0000000000,-0.0000217014
559097.2400242920,0.0688171387,-0.0036621094,-9.8143005374,-0.0000651042,0.0000217014,-0.0000217014
559097.2500242920,0.0692749023,-0.0047302246,-9.8147583011,-0.0000434028,-0.0000108507,-0.0000217014
559097.2600242920,0.0662231445,-0.0041198730,-9.8147583011,-0.0000759549,-0.0000000000,-0.0000434028
559097.2700242921,0.0660705566,-0.0036621094,-9.8149108890,-0.0000542535,0.0000217014,-0.0000434028
559097.2800242919,0.0698852539,-0.0039672852,-9.8138427738,-0.0000217014,0.0000108507,-0.0000325521
559097.2900242920,0.0686645508,-0.0042724609,-9.8136901859,-0.0000651042,-0.0000000000,-0.0000325521
559097.3000242920,0.0660705566,-0.0041198730,-9.8149108890,-0.0000651042,-0.0000000000,-0.0000325521
559097.3100242920,0.0672912598,-0.0035095215,-9.8149108890,-0.0000542535,0.0000217014,-0.0000325521
559097.3200242920,0.0695800781,-0.0039672852,-9.8155212406,-0.0000759549,-0.0000000000,-0.0000434028
559097.3300242920,0.0688171387,-0.0048828125,-9.8138427738,-0.0000542535,-0.0000000000,-0.0000434028
559097.3400242920,0.0660705566,-0.0041198730,-9.8141479495,-0.0000325521,-0.0000325521,-0.0000217014
559097.3500242920,0.0666809082,-0.0028991699,-9.8141479495,-0.0000542535,0.0000325521,-0.0000325521
559097.3600242920,0.0697326660,-0.0044250488,-9.8136901859,-0.0000434028,-0.0000000000,-0.0000325521
559097.3700242920,0.0685119629,-0.0047302246,-9.8141479495,-0.0000651042,-0.0000000000,-0.0000217014
559097.3800242920,0.0650024414,-0.0038146973,-9.8155212406,-0.0000976562,-0.0000000000,-0.0000434028
559097.3900242920,0.0674438477,-0.0033569336,-9.8156738284,-0.0000542535,0.0000217014,-0.0000542535
559097.4000242919,0.0704956055,-0.0038146973,-9.8149108890,-0.0000325521,0.0000108507,-0.0000325521
559097.4100242920,0.0691223145,-0.0045776367,-9.8150634769,-0.0000651042,-0.0000108507,-0.0000217014
559097.4200242920,0.0656127930,-0.0038146973,-9.8149108890,-0.0000542535,-0.0000000000,-0.0000325521
559097.4300242920,0.0665283203,-0.0036621094,-9.8146057132,-0.0000651042,-0.0000000000,-0.0000325521
559097.4400242920,0.0695800781,-0.0044250488,-9.8141479495,-0.0000542535,0.0000108507,-0.0000325521
559097.4500242920,0.0697326660,-0.0045776367,-9.8146057132,-0.0001085069,-0.0000000000,-0.0000325521
559097.4600242920,0.0671386719,-0.0045776367,-9.8149108890,-0.0000759549,-0.0000000000,-0.0000434028
559097.4700242920,0.0659179688,-0.0032043457,-9.8153686527,-0.0000542535,0.0000217014,-0.0000325521
559097.4800242920,0.0695800781,-0.0045776367,-9.8144531253,-0.0000434028,-0.0000000000,-0.0000217014
559097.4900242920,0.0694274902,-0.0045776367,-9.8144531253,-0.0000542535,-0.0000108507,-0.0000325521
559097.5000242920,0.0671386719,-0.0038146973,-9.8146057132,-0.0000651042,-0.0000000000,-0.0000434028
559097.5100242920,0.0668334961,-0.0039672852,-9.8143005374,-0.0000542535,0.0000108507,-0.0000434028
559097.5200242921,0.0680541992,-0.0038146973,-9.8144531253,-0.0000651042,-0.0000000000,-0.0000434028
559097.5300242919,0.0698852539,-0.0051879883,-9.8143005374,-0.0000651042,-0.0000108507,-0.0000217014
559097.5400242920,0.0669860840,-0.0045776367,-9.8146057132,-0.0000434028,-0.0000325521,0.0000000000
559097.5500242920,0.0665283203,-0.0035095215,-9.8139953616,-0.0000434028,0.0000217014,-0.0000217014
559097.5600242920,0.0680541992,-0.0036621094,-9.8143005374,-0.0000542535,-0.0000000000,-0.0000217014
559097.5700242920,0.0692749023,-0.0051879883,-9.8144531253,-0.0000651042,-0.0000000000,-0.0000542535
559097.5800242920,0.0662231445,-0.0036621094,-9.8144531253,-0.0000976562,-0.0000000000,-0.0000325521
559097.5900242920,0.0665283203,-0.0036621094,-9.8146057132,-0.0000651042,-0.0000000000,-0.0000434028
559097.6000242920,0.0688171387,-0.0042724609,-9.8146057132,-0.0000217014,-0.0000000000,-0.0000434028
559097.6100242920,0.0686645508,-0.0045776367,-9.8146057132,-0.0000759549,-0.0000000000,-0.0000325521
559097.6200242920,0.0671386719,-0.0042724609,-9.8149108890,-0.0000542535,-0.0000000000,-0.0000325521
559097.6300242920,0.0677490234,-0.0035095215,-9.8144531253,-0.0000542535,0.0000108507,-0.0000542535
559097.6400242920,0.0688171387,-0.0044250488,-9.8153686527,-0.0000759549,-0.0000000000,-0.0000325521
559097.6500242919,0.0685119629,-0.0041198730,-9.8144531253,-0.0000651042,-0.0000000000,-0.0000325521
559097.6600242920,0.0672912598,-0.0035095215,-9.8144531253,-0.0000542535,-0.0000000000,-0.0000542535
559097.6700242920,0.0672912598,-0.0028991699,-9.8144531253,-0.0000542535,-0.0000000000,-0.0000217014
559097.6800242920,0.0688171387,-0.0053405762,-9.8144531253,-0.0000325521,-0.0000000000,-0.0000325521
559097.6900242920,0.0686645508,-0.0044250488,-9.8147583011,-0.0000434028,-0.0000000000,-0.0000325521
559097.7000242920,0.0674438477,-0.0032043457,-9.8146057132,-0.0000976562,-0.0000000000,-0.0000325521
559097.7100242920,0.0672912598,-0.0036621094,-9.8139953616,-0.0000542535,-0.0000000000,-0.0000325521
559097.7200242920,0.0685119629,-0.0044250488,-9.8144531253,-0.0000651042,0.0000108507,-0.0000325521
559097.7300242920,0.0691223145,-0.0045776367,-9.8139953616,-0.0000759549,-0.0000000000,-0.0000434028
559097.7400242920,0.0671386719,-0.0039672852,-9.8146057132,-0.0000217014,-0.0000108507,-0.0000325521
559097.7500242920,0.0669860840,-0.0035095215,-9.8139953616,-0.0000325521,-0.0000000000,-0.0000325521
559097.7600242920,0.0685119629,-0.0051879883,-9.8144531253,-0.0000651042,0.0000108507,-0.0000434028
559097.7700242921,0.0692749023,-0.0045776367,-9.8146057132,-0.0000759549,-0.0000108507,-0.0000325521
559097.7800242919,0.0674438477,-0.0027465820,-9.8147583011,-0.0000759549,-0.0000000000,-0.0000325521
559097.7900242920,0.0674438477,-0.0038146973,-9.8144531253,-0.0000542535,0.0000108507,-0.0000434028
559097.8000242920,0.0677490234,-0.0053405762,-9.8149108890,-0.0000325521,0.0000108507,-0.0000434028
559097.8100242920,0.0688171387,-0.0038146973,-9.8138427738,-0.0000651042,-0.0000000000,-0.0000325521
559097.8200242920,0.0682067871,-0.0032043457,-9.8146057132,-0.0000434028,-0.0000108507,-0.0000325521
559097.8300242920,0.0668334961,-0.0045776367,-9.8146057132,-0.0000434028,-0.0000000000,-0.0000325521
559097.8400242920,0.0675964355,-0.0045776367,-9.8149108890,-0.0001085069,0.0000108507,-0.0000325521
559097.8500242920,0.0694274902,-0.0036621094,-9.8138427738,-0.0000651042,-0.0000000000,-0.0000325521
559097.8600242920,0.0677490234,-0.0032043457,-9.8146057132,-0.0000542535,-0.0000000000,-0.0000325521
559097.8700242920,0.0662231445,-0.0044250488,-9.8146057132,-0.0000542535,0.0000217014,-0.0000434028
559097.8800242930,0.0675964355,-0.0044250488,-9.8139953616,-0.0000217014,-0.0000000000,-0.0000325521
559097.8900242930,0.0689697266,-0.0035095215,-9.8144531253,-0.0000542535,-0.0000000000,-0.0000325521
559097.9000242930,0.0672912598,-0.0035095215,-9.8141479495,-0.0000759549,-0.0000000000,-0.0000434028
559097.9100242930,0.0671386719,-0.0048828125,-9.8139953616,-0.0000325521,-0.0000000000,-0.0000434028
559097.9200242930,0.0683593750,-0.0039672852,-9.8143005374,-0.0001085069,-0.0000000000,-0.0000325521
