t(s),acc_x,acc_y,acc_z,gyro_x,gyro_y,gyro_z
558329.0000235760,9.7885131839,-0.0413513184,0.0651550293,0.0000325521,-0.0000000000,-0.0001193576
558329.0100235760,9.7888183597,-0.0361633301,0.0656127930,0.0000325521,-0.0000000000,0.0004340278
558329.0200235760,9.7889709476,-0.0346374512,0.0643920898,0.0000325521,-0.0000000000,-0.0004123264
558329.0300235760,9.7880554202,-0.0416564941,0.0642395020,0.0000325521,0.0000217014,0.0005642361
558329.0400235760,9.7889709476,-0.0305175781,0.0651550293,0.0000000000,0.0000217014,-0.0004231771
558329.0500235760,9.7882080081,-0.0437927246,0.0653076172,0.0000325521,-0.0000325521,0.0005099826
558329.0600235760,9.7889709476,-0.0305175781,0.0648498535,0.0000217014,-0.0000000000,-0.0002604167
558329.0700235760,9.7879028324,-0.0444030762,0.0642395020,0.0000217014,-0.0000000000,0.0002495660
558329.0800235770,9.7891235355,-0.0299072266,0.0657653809,0.0000325521,-0.0000000000,0.0000325521
558329.0900235770,9.7877502445,-0.0405883789,0.0656127930,0.0000434028,-0.0000000000,-0.0000759549
558329.1000235770,9.7885131839,-0.0366210938,0.0639343262,0.0000325521,-0.0000325521,0.0004123264
558329.1100235770,9.7888183597,-0.0349426270,0.0637817383,-0.0000108507,0.0000217014,-0.0003906250
558329.1200235770,9.7877502445,-0.0402832031,0.0654602051,0.0000434028,-0.0000000000,0.0005533854
558329.1300235770,9.7895812991,-0.0308227539,0.0646972656,0.0000108507,-0.0000000000,-0.0004231771
558329.1400235770,9.7871398929,-0.0444030762,0.0642395020,0.0000325521,-0.0000000000,0.0005099826
558329.1500235770,9.7897338870,-0.0292968750,0.0643920898,0.0000434028,-0.0000000000,-0.0002278646
558329.1600235770,9.7872924808,-0.0439453125,0.0648498535,0.0000434028,-0.0000000000,0.0001302083
558329.1700235771,9.7888183597,-0.0325012207,0.0654602051,0.0000325521,-0.0000000000,0.0002170139
558329.1800235769,9.7885131839,-0.0384521484,0.0645446777,0.0000217014,-0.0000000000,-0.0002821181
558329.1900235770,9.7880554202,-0.0381469727,0.0643920898,0.0000217014,0.0000108507,0.0005316840
558329.2000235770,9.7891235355,-0.0335693359,0.0643920898,0.0000217014,-0.0000000000,-0.0004340278
558329.2100235770,9.7879028324,-0.0431823730,0.0650024414,0.0000434028,-0.0000000000,0.0005316840
558329.2200235770,9.7903442386,-0.0299072266,0.0646972656,0.0000325521,-0.0000000000,-0.0003255208
558329.2300235770,9.7871398929,-0.0433349609,0.0639343262,0.0000325521,-0.0000000000,0.0003689236
558329.2400235770,9.7894287113,-0.0303649902,0.0648498535,0.0000108507,-0.0000000000,-0.0001085069
558329.2500235770,9.7879028324,-0.0436401367,0.0657653809,0.0000325521,-0.0000000000,0.0000976562
558329.2600235770,9.7885131839,-0.0317382813,0.0645446777,0.0000217014,-0.0000000000,0.0001736111
558329.2700235770,9.7886657718,-0.0387573242,0.0646972656,0.0000217014,0.0000108507,-0.0001627604
558329.2800235770,9.7885131839,-0.0384521484,0.0656127930,0.0000325521,-0.0000000000,0.0004123264
558329.2900235771,9.7888183597,-0.0352478027,0.0639343262,0.0000325521,-0.0000000000,-0.0003363715
558329.3000235769,9.7880554202,-0.0395202637,0.0648498535,0.0000325521,-0.0000217014,0.0005099826
558329.3100235770,9.7889709476,-0.0332641602,0.0657653809,0.0000217014,0.0000325521,-0.0003906250
558329.3200235770,9.7872924808,-0.0430297852,0.0654602051,0.0000217014,-0.0000434028,0.0005099826
558329.3300235770,9.7894287113,-0.0305175781,0.0650024414,0.0000217014,0.0000217014,-0.0003146701
558329.3400235770,9.7871398929,-0.0437927246,0.0637817383,0.0000542535,-0.0000000000,0.0003255208
558329.3500235770,9.7889709476,-0.0303649902,0.0656127930,0.0000325521,0.0000217014,-0.0000651042
558329.3600235770,9.7877502445,-0.0433349609,0.0660705566,0.0000651042,-0.0000325521,0.0000325521
558329.3700235770,9.7891235355,-0.0340270996,0.0639343262,0.0000217014,-0.0000108507,0.0002604167
558329.3800235770,9.7880554202,-0.0381469727,0.0636291504,-0.0000108507,0.0000217014,-0.0002821181
558329.3900235770,9.7882080081,-0.0393676758,0.0653076172,0.0000434028,-0.0000000000,0.0005099826
558329.4000235770,9.7888183597,-0.0332641602,0.0657653809,0.0000325521,0.0000217014,-0.0004123264
558329.4100235770,9.7877502445,-0.0419616699,0.0648498535,0.0000325521,-0.0000434028,0.0005208333
558329.4200235771,9.7891235355,-0.0320434570,0.0634765625,0.0000434028,0.0000108507,-0.0003146701
558329.4300235769,9.7871398929,-0.0439453125,0.0639343262,0.0000434028,-0.0000000000,0.0003472222
558329.4400235770,9.7889709476,-0.0294494629,0.0659179688,0.0000000000,-0.0000000000,-0.0001410590
558329.4500235770,9.7882080081,-0.0427246094,0.0656127930,0.0000434028,0.0000108507,0.0001736111
558329.4600235770,9.7882080081,-0.0328063965,0.0630187988,0.0000108507,-0.0000108507,0.0000434028
558329.4700235770,9.7883605960,-0.0404357910,0.0645446777,0.0000217014,0.0000217014,-0.0000868056
558329.4800235770,9.7883605960,-0.0343322754,0.0666809082,0.0000542535,-0.0000217014,0.0003580729
558329.4900235770,9.7883605960,-0.0355529785,0.0653076172,0.0000217014,-0.0000000000,-0.0003689236
558329.5000235770,9.7882080081,-0.0415039063,0.0636291504,0.0000434028,-0.0000217014,0.0005642361
558329.5100235770,9.7889709476,-0.0323486328,0.0640869141,0.0000108507,0.0000217014,-0.0004231771
558329.5200235770,9.7875976566,-0.0421142578,0.0663757324,0.0000217014,-0.0000217014,0.0004774306
558329.5300235770,9.7898864749,-0.0311279297,0.0662231445,0.0000217014,-0.0000000000,-0.0002821181
558329.5400235771,9.7875976566,-0.0450134277,0.0631713867,0.0000542535,-0.0000000000,0.0002604167
558329.5500235769,9.7892761234,-0.0303649902,0.0640869141,0.0000217014,0.0000217014,0.0000000000
558329.5600235770,9.7888183597,-0.0407409668,0.0663757324,0.0000651042,-0.0000000000,-0.0000325521
558329.5700235770,9.7883605960,-0.0358581543,0.0660705566,0.0000325521,-0.0000000000,0.0003580729
558329.5800235770,9.7885131839,-0.0375366211,0.0637817383,0.0000000000,-0.0000000000,-0.0004014757
558329.5900235770,9.7885131839,-0.0405883789,0.0639343262,0.0000217014,-0.0000000000,0.0005859375
558329.6000235770,9.7891235355,-0.0314331055,0.0662231445,0.0000325521,-0.0000000000,-0.0004665799
558329.6100235770,9.7877502445,-0.0442504883,0.0657653809,0.0000325521,-0.0000217014,0.0005099826
558329.6200235770,9.7900390628,-0.0303649902,0.0637817383,0.0000434028,-0.0000000000,-0.0002170139
558329.6300235770,9.7874450687,-0.0434875488,0.0630187988,0.0000434028,-0.0000000000,0.0001844618
558329.6400235770,9.7897338870,-0.0318908691,0.0663757324,0.0000108507,-0.0000000000,0.0000868056
558329.6500235770,9.7886657718,-0.0405883789,0.0662231445,0.0000325521,-0.0000000000,-0.0001085069
558329.6600235770,9.7892761234,-0.0360107422,0.0631713867,0.0000217014,-0.0000325521,0.0002929687
558329.6700235771,9.7882080081,-0.0361633301,0.0628662109,0.0000108507,0.0000217014,-0.0002387153
558329.6800235769,9.7879028324,-0.0386047363,0.0660705566,0.0000542535,-0.0000000000,0.0004340278
558329.6900235770,9.7889709476,-0.0355529785,0.0659179688,0.0000325521,-0.0000000000,-0.0003038194
558329.7000235770,9.7883605960,-0.0402832031,0.0645446777,0.0000217014,-0.0000325521,0.0004448785
558329.7100235770,9.7892761234,-0.0337219238,0.0640869141,0.0000325521,-0.0000000000,-0.0003255208
558329.7200235770,9.7877502445,-0.0411987305,0.0636291504,0.0000217014,-0.0000000000,0.0004665799
558329.7300235770,9.7897338870,-0.0303649902,0.0682067871,0.0000217014,0.0000108507,-0.0003038194
558329.7400235770,9.7872924808,-0.0447082520,0.0651550293,0.0000434028,-0.0000434028,0.0003472222
558329.7500235770,9.7892761234,-0.0297546387,0.0627136230,0.0000325521,0.0000108507,-0.0001519097
558329.7600235770,9.7883605960,-0.0427246094,0.0634765625,0.0000434028,-0.0000108507,0.0001736111
558329.7700235770,9.7883605960,-0.0331115723,0.0665283203,0.0000325521,0.0000108507,0.0000976562
558329.7800235770,9.7886657718,-0.0395202637,0.0662231445,0.0000108507,-0.0000000000,-0.0001302083
558329.7900235771,9.7885131839,-0.0361633301,0.0631713867,0.0000434028,-0.0000000000,0.0004231771
558329.8000235769,9.7889709476,-0.0349426270,0.0634765625,0.0000217014,0.0000108507,-0.0004231771
558329.8100235770,9.7879028324,-0.0424194336,0.0663757324,0.0000434028,-0.0000217014,0.0006184896
558329.8200235770,9.7898864749,-0.0292968750,0.0662231445,0.0000217014,0.0000108507,-0.0004774306
558329.8300235770,9.7874450687,-0.0439453125,0.0630187988,0.0000651042,-0.0000325521,0.0004557292
558329.8400235770,9.7897338870,-0.0303649902,0.0639343262,0.0000108507,-0.0000000000,-0.0000868056
558329.8500235770,9.7875976566,-0.0436401367,0.0662231445,0.0000108507,0.0000108507,0.0000108507
558329.8600235770,9.7883605960,-0.0337219238,0.0660705566,0.0000108507,-0.0000325521,0.0002712674
558329.8700235770,9.7889709476,-0.0367736816,0.0634765625,0.0000217014,0.0000325521,-0.0002929687
558329.8800235770,9.7886657718,-0.0392150879,0.0640869141,0.0000542535,-0.0000217014,0.0004991319
558329.8900235770,9.7891235355,-0.0335693359,0.0662231445,0.0000325521,0.0000325521,-0.0003906250
558329.9000235770,9.7877502445,-0.0421142578,0.0653076172,0.0000217014,-0.0000434028,0.0005316840
558329.9100235770,9.7898864749,-0.0297546387,0.0636291504,0.0000217014,0.0000108507,-0.0003363715
558329.9200235771,9.7874450687,-0.0439453125,0.0637817383,0.0000108507,0.0000217014,0.0003906250
558329.9300235769,9.7888183597,-0.0303649902,0.0668334961,0.0000000000,0.0000108507,-0.0001410590
558329.9400235770,9.7875976566,-0.0431823730,0.0656127930,0.0000542535,-0.0000000000,0.0000651042
558329.9500235770,9.7892761234,-0.0321960449,0.0639343262,0.0000434028,-0.0000000000,0.0002387153
558329.9600235770,9.7885131839,-0.0379943848,0.0639343262,0.0000108507,-0.0000000000,-0.0002495660
558329.9700235770,9.7885131839,-0.0399780273,0.0648498535,0.0000217014,0.0000217014,0.0004991319
558329.9800235770,9.7889709476,-0.0332641602,0.0656127930,0.0000000000,-0.0000000000,-0.0004340278
558329.9900235770,9.7872924808,-0.0416564941,0.0656127930,0.0000108507,-0.0000325521,0.0005208333
558330.0000235770,9.7894287113,-0.0309753418,0.0642395020,0.0000434028,0.0000108507,-0.0003689236
558330.0100235770,9.7875976566,-0.0439453125,0.0637817383,0.0000542535,-0.0000000000,0.0004123264
558330.0200235770,9.7897338870,-0.0300598145,0.0648498535,0.0000217014,-0.0000000000,-0.0001736111
558330.0300235770,9.7879028324,-0.0433349609,0.0653076172,0.0000325521,-0.0000000000,0.0001953125
558330.0400235771,9.7891235355,-0.0320434570,0.0643920898,0.0000108507,-0.0000000000,0.0000217014
558330.0500235769,9.7886657718,-0.0418090820,0.0639343262,-0.0001085069,-0.0000000000,-0.0000651042
558330.0600235770,9.7885131839,-0.0354003906,0.0645446777,-0.0006401910,-0.0000108507,0.0002712674
558330.0700235770,9.7883605960,-0.0350952148,0.0646972656,-0.0022352431,0.0000217014,-0.0002387153
558330.0800235770,9.7886657718,-0.0379943848,0.0648498535,-0.0040147569,-0.0000000000,0.0004014757
558330.0900235770,9.7886657718,-0.0350952148,0.0630187988,-0.0054253472,0.0000434028,-0.0003797743
558330.1000235770,9.7882080081,-0.0381469727,0.0639343262,-0.0066080729,0.0000108507,0.0004014757
558330.1100235770,9.7904968265,-0.0317382813,0.0650024414,-0.0075303819,0.0000542535,-0.0003906250
558330.1200235770,9.7888183597,-0.0421142578,0.0648498535,-0.0081380208,0.0000108507,0.0004123264
558330.1300235770,9.7897338870,-0.0312805176,0.0643920898,-0.0091796875,0.0000325521,-0.0004014757
558330.1400235770,9.7869873050,-0.0434875488,0.0634765625,-0.0097330729,0.0000108507,0.0002712674
558330.1500235780,9.7882080081,-0.0282287598,0.0653076172,-0.0105143229,0.0000542535,-0.0002061632
558330.1600235780,9.7875976566,-0.0424194336,0.0653076172,-0.0113823785,0.0000217014,0.0000868056
558330.1700235780,9.7891235355,-0.0326538086,0.0642395020,-0.0120985243,0.0000759549,-0.0000217014
558330.1800235780,9.7879028324,-0.0384521484,0.0636291504,-0.0132269965,0.0000651042,-0.0002495660
558330.1900235780,9.7883605960,-0.0366210938,0.0660705566,-0.0142252604,0.0000434028,0.0003038194
558330.2000235780,9.7888183597,-0.0354003906,0.0639343262,-0.0149739583,0.0000651042,-0.0004882812
558330.2100235780,9.7882080081,-0.0398254395,0.0645446777,-0.0160047743,0.0000434028,0.0004123264
558330.2200235780,9.7892761234,-0.0306701660,0.0642395020,-0.0168402778,0.0000651042,-0.0005533854
558330.2300235780,9.7877502445,-0.0418090820,0.0650024414,-0.0175781250,0.0000542535,0.0003580729
558330.2400235781,9.7895812991,-0.0296020508,0.0645446777,-0.0187608507,0.0000651042,-0.0004014757
558330.2500235779,9.7877502445,-0.0442504883,0.0636291504,-0.0194335937,0.0000651042,0.0000542535
558330.2600235780,9.7889709476,-0.0300598145,0.0640869141,-0.0203450521,0.0000651042,-0.0000542535
558330.2700235780,9.7883605960,-0.0399780273,0.0645446777,-0.0213975694,0.0001410590,-0.0002929687
558330.2800235780,9.7883605960,-0.0376892090,0.0651550293,-0.0219401042,0.0000542535,0.0002821181
558330.2900235780,9.7882080081,-0.0328063965,0.0645446777,-0.0229709201,0.0000976562,-0.0006293403
558330.3000235780,9.7880554202,-0.0418090820,0.0631713867,-0.0239474826,0.0000759549,0.0004231771
558330.3100235780,9.7885131839,-0.0289916992,0.0653076172,-0.0245225694,0.0001193576,-0.0005642361
558330.3200235780,9.7883605960,-0.0427246094,0.0659179688,-0.0256727431,0.0001085069,0.0001736111
558330.3300235780,9.7898864749,-0.0309753418,0.0636291504,-0.0265190972,0.0001085069,-0.0003797743
558330.3400235780,9.7877502445,-0.0418090820,0.0628662109,-0.0272135417,0.0001085069,-0.0000217014
558330.3500235780,9.7891235355,-0.0309753418,0.0651550293,-0.0285807292,0.0000976562,-0.0001085069
558330.3600235780,9.7882080081,-0.0408935547,0.0656127930,-0.0291232639,0.0001085069,-0.0003038194
558330.3700235781,9.7880554202,-0.0350952148,0.0645446777,-0.0297526042,0.0000976562,0.0000868056
558330.3800235779,9.7889709476,-0.0346374512,0.0627136230,-0.0308051215,0.0001410590,-0.0005750868
558330.3900235780,9.7883605960,-0.0387573242,0.0646972656,-0.0314344618,0.0001410590,0.0002821181
558330.4000235780,9.7898864749,-0.0321960449,0.0650024414,-0.0325303819,0.0001410590,-0.0006727431
558330.4100235780,9.7868347171,-0.0416564941,0.0643920898,-0.0334526910,0.0000868056,0.0002821181
558330.4200235780,9.7897338870,-0.0296020508,0.0630187988,-0.0340386285,0.0001844618,-0.0005642361
558330.4300235780,9.7880554202,-0.0425720215,0.0645446777,-0.0352430556,0.0001519097,0.0000000000
558330.4400235780,9.7879028324,-0.0305175781,0.0660705566,-0.0362413194,0.0000868056,-0.0002170139
558330.4500235780,9.7874450687,-0.0413513184,0.0645446777,-0.0369357639,0.0001844618,-0.0004448785
558330.4600235780,9.7879028324,-0.0361633301,0.0627136230,-0.0379448785,0.0001193576,0.0001302083
558330.4700235780,9.7891235355,-0.0334167480,0.0640869141,-0.0385416667,0.0001953125,-0.0007161458
558330.4800235780,9.7877502445,-0.0401306152,0.0657653809,-0.0393554687,0.0001410590,0.0002712674
558330.4900235781,9.7889709476,-0.0312805176,0.0648498535,-0.0405164931,0.0001627604,-0.0007486979
558330.5000235779,9.7877502445,-0.0434875488,0.0630187988,-0.0412217882,0.0001410590,0.0001193576
558330.5100235780,9.7891235355,-0.0285339355,0.0639343262,-0.0421115451,0.0002061632,-0.0005425347
558330.5200235780,9.7877502445,-0.0422668457,0.0646972656,-0.0431532118,0.0001736111,-0.0001085069
558330.5300235780,9.7892761234,-0.0325012207,0.0657653809,-0.0436740451,0.0001519097,-0.0003255208
558330.5400235780,9.7880554202,-0.0408935547,0.0640869141,-0.0447048611,0.0001736111,-0.0003472222
558330.5500235780,9.7892761234,-0.0334167480,0.0630187988,-0.0456488715,0.0001953125,-0.0000868056
558330.5600235780,9.7882080081,-0.0350952148,0.0653076172,-0.0462565104,0.0001953125,-0.0006401910
558330.5700235780,9.7886657718,-0.0387573242,0.0660705566,-0.0474066840,0.0001736111,0.0001519097
558330.5800235780,9.7886657718,-0.0346374512,0.0639343262,-0.0482855903,0.0001844618,-0.0007595486
558330.5900235780,9.7868347171,-0.0407409668,0.0622558594,-0.0486653646,0.0001844618,0.0001085069
558330.6000235780,9.7895812991,-0.0303649902,0.0645446777,-0.0500217014,0.0002495660,-0.0007595486
558330.6100235780,9.7868347171,-0.0430297852,0.0660705566,-0.0507703993,0.0001844618,0.0000651042
558330.6200235781,9.7888183597,-0.0300598145,0.0646972656,-0.0516927083,0.0001953125,-0.0006076389
558330.6300235779,9.7883605960,-0.0433349609,0.0634765625,-0.0525933160,0.0002278646,-0.0002061632
558330.6400235780,9.7888183597,-0.0294494629,0.0646972656,-0.0531575521,0.0002061632,-0.0003580729
558330.6500235780,9.7883605960,-0.0410461426,0.0654602051,-0.0541341146,0.0002170139,-0.0004991319
558330.6600235780,9.7889709476,-0.0364685059,0.0637817383,-0.0553168403,0.0001953125,-0.0001085069
558330.6700235780,9.7880554202,-0.0358581543,0.0643920898,-0.0559244792,0.0002495660,-0.0007052951
558330.6800235780,9.7888183597,-0.0378417969,0.0642395020,-0.0569444444,0.0002170139,0.0000325521
558330.6900235780,9.7900390628,-0.0329589844,0.0653076172,-0.0578450521,0.0002495660,-0.0008246528
558330.7000235780,9.7885131839,-0.0408935547,0.0630187988,-0.0586588542,0.0002278646,0.0000108507
558330.7100235780,9.7900390628,-0.0314331055,0.0653076172,-0.0595811632,0.0002604167,-0.0007486979
558330.7200235780,9.7882080081,-0.0410461426,0.0646972656,-0.0602322049,0.0002387153,-0.0001519097
558330.7300235780,9.7891235355,-0.0300598145,0.0645446777,-0.0610243056,0.0002387153,-0.0005859375
558330.7400235781,9.7882080081,-0.0425720215,0.0639343262,-0.0622070312,0.0002387153,-0.0003255208
558330.7500235779,9.7882080081,-0.0331115723,0.0640869141,-0.0629448785,0.0002387153,-0.0004231771
558330.7600235780,9.7875976566,-0.0375366211,0.0656127930,-0.0638671875,0.0002604167,-0.0005642361
558330.7700235780,9.7883605960,-0.0369262695,0.0648498535,-0.0647135417,0.0002387153,-0.0001844618
558330.7800235780,9.7883605960,-0.0373840332,0.0634765625,-0.0653537326,0.0002604167,-0.0007921007
558330.7900235780,9.7882080081,-0.0381469727,0.0650024414,-0.0665039062,0.0002495660,-0.0000325521
558330.8000235780,9.7889709476,-0.0326538086,0.0646972656,-0.0674045139,0.0003146701,-0.0009657118
558330.8100235780,9.7882080081,-0.0415039063,0.0645446777,-0.0680338542,0.0002495660,0.0000217014
558330.8200235780,9.7897338870,-0.0309753418,0.0633239746,-0.0690538194,0.0003038194,-0.0008572049
558330.8300235780,9.7880554202,-0.0433349609,0.0640869141,-0.0698459201,0.0002712674,-0.0001736111
558330.8400235780,9.7894287113,-0.0292968750,0.0653076172,-0.0706380208,0.0002821181,-0.0006727431
558330.8500235780,9.7885131839,-0.0424194336,0.0646972656,-0.0718098958,0.0003255208,-0.0005208333
558330.8600235780,9.7885131839,-0.0346374512,0.0631713867,-0.0724500868,0.0002278646,-0.0002712674
558330.8700235781,9.7875976566,-0.0360107422,0.0637817383,-0.0733506944,0.0003472222,-0.0009223090
558330.8800235779,9.7877502445,-0.0392150879,0.0657653809,-0.0744032118,0.0002604167,0.0000000000
558330.8900235780,9.7894287113,-0.0318908691,0.0653076172,-0.0749131944,0.0003363715,-0.0010525174
558330.9000235780,9.7874450687,-0.0437927246,0.0637817383,-0.0759006076,0.0002712674,-0.0000542535
558330.9100235780,9.7883605960,-0.0294494629,0.0628662109,-0.0769531250,0.0003146701,-0.0008897569
558330.9200235780,9.7877502445,-0.0422668457,0.0653076172,-0.0776258681,0.0003146701,-0.0003255208
558330.9300235780,9.7903442386,-0.0311279297,0.0651550293,-0.0788411458,0.0003472222,-0.0006184896
558330.9400235780,9.7882080081,-0.0405883789,0.0651550293,-0.0795247396,0.0003038194,-0.0006401910
558330.9500235780,9.7880554202,-0.0354003906,0.0634765625,-0.0800781250,0.0003038194,-0.0002712674
558330.9600235780,9.7891235355,-0.0344848633,0.0636291504,-0.0811631944,0.0003797743,-0.0009331597
558330.9700235780,9.7877502445,-0.0378417969,0.0668334961,-0.0819661458,0.0003038194,-0.0001302083
558330.9800235780,9.7900390628,-0.0340270996,0.0639343262,-0.0828125000,0.0003580729,-0.0010525174
558330.9900235781,9.7880554202,-0.0401306152,0.0637817383,-0.0840169271,0.0003363715,-0.0001519097
558331.0000235779,9.7886657718,-0.0308227539,0.0642395020,-0.0847005208,0.0003472222,-0.0009874132
558331.0100235780,9.7865295413,-0.0431823730,0.0642395020,-0.0857421875,0.0003472222,-0.0002821181
558331.0200235780,9.7882080081,-0.0289916992,0.0648498535,-0.0865559896,0.0003255208,-0.0007703993
558331.0300235780,9.7891235355,-0.0425720215,0.0654602051,-0.0871527778,0.0003689236,-0.0006401910
558331.0400235780,9.7888183597,-0.0308227539,0.0636291504,-0.0883029514,0.0003363715,-0.0004557292
558331.0500235780,9.7883605960,-0.0378417969,0.0637817383,-0.0893012153,0.0003906250,-0.0009114583
558331.0600235780,9.7885131839,-0.0379943848,0.0650024414,-0.0899414062,0.0003255208,-0.0002821181
558331.0700235780,9.7879028324,-0.0346374512,0.0643920898,-0.0909288194,0.0003689236,-0.0010525174
558331.0800235780,9.7875976566,-0.0390625000,0.0646972656,-0.0915798611,0.0003580729,-0.0001953125
558331.0900235780,9.7886657718,-0.0325012207,0.0642395020,-0.0923177083,0.0003797743,-0.0010959201
558331.1000235780,9.7875976566,-0.0418090820,0.0634765625,-0.0935438368,0.0003797743,-0.0002604167
558331.1100235780,9.7898864749,-0.0296020508,0.0657653809,-0.0942382812,0.0004123264,-0.0009765625
558331.1200235781,9.7886657718,-0.0422668457,0.0653076172,-0.0950195312,0.0003580729,-0.0005642361
558331.1300235779,9.7889709476,-0.0311279297,0.0642395020,-0.0961588542,0.0004123264,-0.0006184896
558331.1400235780,9.7889709476,-0.0398254395,0.0639343262,-0.0967881944,0.0003580729,-0.0008680556
558331.1500235780,9.7889709476,-0.0361633301,0.0640869141,-0.0976996528,0.0004123264,-0.0004014757
558331.1600235780,9.7886657718,-0.0337219238,0.0650024414,-0.0986979167,0.0004014757,-0.0011067708
558331.1700235780,9.7875976566,-0.0392150879,0.0657653809,-0.0993164062,0.0003797743,-0.0002495660
558331.1800235780,9.7894287113,-0.0323486328,0.0637817383,-0.1004882812,0.0004231771,-0.0012044271
558331.1900235780,9.7872924808,-0.0430297852,0.0630187988,-0.1012912326,0.0003906250,-0.0002929687
558331.2000235780,9.7891235355,-0.0283813477,0.0656127930,-0.1018120660,0.0004123264,-0.0010850694
558331.2100235780,9.7872924808,-0.0419616699,0.0651550293,-0.1031141493,0.0003797743,-0.0004991319
558331.2200235780,9.7891235355,-0.0320434570,0.0637817383,-0.1038302951,0.0004340278,-0.0008572049
558331.2300235790,9.7888183597,-0.0401306152,0.0636291504,-0.1047417535,0.0004123264,-0.0007486979
558331.2400235790,9.7872924808,-0.0331115723,0.0642395020,-0.1059027778,0.0003906250,-0.0006401910
558331.2500235790,9.7885131839,-0.0379943848,0.0650024414,-0.1064127604,0.0004557292,-0.0010416667
558331.2600235790,9.7889709476,-0.0375366211,0.0653076172,-0.1073567708,0.0003906250,-0.0003906250
558331.2700235790,9.7897338870,-0.0341796875,0.0643920898,-0.1083984375,0.0004882812,-0.0012478299
558331.2800235790,9.7872924808,-0.0402832031,0.0640869141,-0.1089952257,0.0003797743,-0.0002821181
558331.2900235790,9.7897338870,-0.0309753418,0.0631713867,-0.1098524306,0.0004882812,-0.0012586806
558331.3000235790,9.7874450687,-0.0408935547,0.0653076172,-0.1107855903,0.0004014757,-0.0003906250
558331.3100235790,9.7898864749,-0.0294494629,0.0653076172,-0.1114800347,0.0004665799,-0.0010959201
558331.3200235791,9.7885131839,-0.0433349609,0.0646972656,-0.1128580729,0.0004557292,-0.0007052951
558331.3300235790,9.7889709476,-0.0308227539,0.0631713867,-0.1134982639,0.0004557292,-0.0007595486
558331.3400235790,9.7888183597,-0.0384521484,0.0648498535,-0.1141710069,0.0004774306,-0.0010525174
558331.3500235790,9.7891235355,-0.0372314453,0.0650024414,-0.1152669271,0.0004448785,-0.0004774306
558331.3600235790,9.7891235355,-0.0347900391,0.0624084473,-0.1159830729,0.0004991319,-0.0012586806
558331.3700235790,9.7882080081,-0.0382995605,0.0653076172,-0.1169162326,0.0004448785,-0.0003906250
558331.3800235790,9.7891235355,-0.0308227539,0.0657653809,-0.1178059896,0.0004882812,-0.0013454861
558331.3900235790,9.7866821292,-0.0427246094,0.0639343262,-0.1184895833,0.0004665799,-0.0004231771
558331.4000235790,9.7900390628,-0.0300598145,0.0631713867,-0.1195746528,0.0004991319,-0.0012261285
558331.4100235790,9.7874450687,-0.0422668457,0.0645446777,-0.1205078125,0.0004882812,-0.0006510417
558331.4200235790,9.7889709476,-0.0303649902,0.0662231445,-0.1211914062,0.0004557292,-0.0009440104
558331.4300235790,9.7883605960,-0.0402832031,0.0646972656,-0.1222873264,0.0004882812,-0.0010091146
558331.4400235791,9.7895812991,-0.0357055664,0.0628662109,-0.1231770833,0.0004991319,-0.0006184896
558331.4500235789,9.7886657718,-0.0347900391,0.0648498535,-0.1238715278,0.0005099826,-0.0013129340
558331.4600235790,9.7875976566,-0.0386047363,0.0663757324,-0.1249565972,0.0004557292,-0.0004340278
558331.4700235790,9.7894287113,-0.0331115723,0.0643920898,-0.1256401910,0.0005099826,-0.0014105903
558331.4800235790,9.7871398929,-0.0418090820,0.0627136230,-0.1264973958,0.0004991319,-0.0004774306
558331.4900235790,9.7895812991,-0.0294494629,0.0640869141,-0.1276367187,0.0005425347,-0.0013129340
558331.5000235790,9.7879028324,-0.0437927246,0.0659179688,-0.1280381944,0.0005099826,-0.0006835937
558331.5100235790,9.7897338870,-0.0285339355,0.0640869141,-0.1289279514,0.0005316840,-0.0010525174
558331.5200235790,9.7883605960,-0.0402832031,0.0636291504,-0.1300781250,0.0005316840,-0.0010416667
558331.5300235790,9.7882080081,-0.0344848633,0.0637817383,-0.1308919271,0.0005316840,-0.0007161458
558331.5400235790,9.7885131839,-0.0364685059,0.0648498535,-0.1320203993,0.0005316840,-0.0013346354
558331.5500235790,9.7871398929,-0.0392150879,0.0656127930,-0.1326605903,0.0004991319,-0.0005099826
558331.5600235790,9.7891235355,-0.0334167480,0.0634765625,-0.1331054687,0.0005533854,-0.0014648437
558331.5700235791,9.7883605960,-0.0404357910,0.0637817383,-0.1344835069,0.0005425347,-0.0005208333
558331.5800235790,9.7892761234,-0.0308227539,0.0654602051,-0.1351996528,0.0005533854,-0.0013997396
558331.5900235790,9.7872924808,-0.0431823730,0.0646972656,-0.1359266493,0.0005642361,-0.0007052951
558331.6000235790,9.7904968265,-0.0286865234,0.0639343262,-0.1370768229,0.0005533854,-0.0011827257
558331.6100235790,9.7888183597,-0.0410461426,0.0639343262,-0.1377170139,0.0005859375,-0.0009657118
558331.6200235790,9.7888183597,-0.0335693359,0.0651550293,-0.1387152778,0.0005425347,-0.0008680556
558331.6300235790,9.7877502445,-0.0373840332,0.0646972656,-0.1396484375,0.0005642361,-0.0013346354
558331.6400235790,9.7880554202,-0.0372314453,0.0639343262,-0.1402452257,0.0005425347,-0.0006184896
558331.6500235790,9.7892761234,-0.0321960449,0.0630187988,-0.1413845486,0.0006076389,-0.0015516493
558331.6600235790,9.7880554202,-0.0419616699,0.0662231445,-0.1423828125,0.0005533854,-0.0005208333
558331.6700235790,9.7903442386,-0.0300598145,0.0662231445,-0.1431206597,0.0005859375,-0.0015190972
558331.6800235790,9.7880554202,-0.0411987305,0.0633239746,-0.1442382812,0.0005425347,-0.0007052951
558331.6900235791,9.7888183597,-0.0305175781,0.0625610352,-0.1449110243,0.0005967882,-0.0013020833
558331.7000235789,9.7879028324,-0.0427246094,0.0646972656,-0.1456054687,0.0005859375,-0.0010199653
558331.7100235790,9.7885131839,-0.0325012207,0.0668334961,-0.1466796875,0.0005750868,-0.0009982639
558331.7200235790,9.7885131839,-0.0372314453,0.0645446777,-0.1473307292,0.0005750868,-0.0013454861
558331.7300235790,9.7885131839,-0.0361633301,0.0628662109,-0.1481662326,0.0005859375,-0.0007052951
558331.7400235790,9.7875976566,-0.0354003906,0.0634765625,-0.1492730035,0.0006184896,-0.0015516493
558331.7500235790,9.7880554202,-0.0410461426,0.0663757324,-0.1499674479,0.0006184896,-0.0006510417
558331.7600235790,9.7892761234,-0.0294494629,0.0663757324,-0.1509440104,0.0005967882,-0.0015950521
558331.7700235790,9.7875976566,-0.0424194336,0.0616455078,-0.1519639757,0.0006076389,-0.0007052951
558331.7800235790,9.7901916507,-0.0300598145,0.0634765625,-0.1526367187,0.0006401910,-0.0014539931
558331.7900235790,9.7882080081,-0.0425720215,0.0663757324,-0.1536458333,0.0006510417,-0.0009982639
558331.8000235790,9.7891235355,-0.0302124023,0.0671386719,-0.1544596354,0.0005750868,-0.0011501736
558331.8100235790,9.7880554202,-0.0386047363,0.0627136230,-0.1549370660,0.0006184896,-0.0013020833
558331.8200235791,9.7888183597,-0.0360107422,0.0619506836,-0.1562717014,0.0006293403,-0.0008246528
558331.8300235790,9.7882080081,-0.0354003906,0.0653076172,-0.1570746528,0.0006618924,-0.0015950521
558331.8400235790,9.7885131839,-0.0395202637,0.0672912598,-0.1579318576,0.0006293403,-0.0007269965
558331.8500235790,9.7882080081,-0.0297546387,0.0636291504,-0.1590820312,0.0006293403,-0.0016601562
558331.8600235790,9.7871398929,-0.0431823730,0.0621032715,-0.1596137153,0.0006293403,-0.0007378472
558331.8700235790,9.7888183597,-0.0296020508,0.0645446777,-0.1604383680,0.0006835937,-0.0015407986
558331.8800235790,9.7874450687,-0.0430297852,0.0663757324,-0.1614908854,0.0006293403,-0.0009874132
558331.8900235790,9.7889709476,-0.0308227539,0.0656127930,-0.1621744792,0.0006293403,-0.0013129340
558331.9000235790,9.7889709476,-0.0405883789,0.0636291504,-0.1631727430,0.0006510417,-0.0012803819
558331.9100235790,9.7888183597,-0.0343322754,0.0631713867,-0.1640299479,0.0006727431,-0.0009657118
558331.9200235790,9.7886657718,-0.0360107422,0.0653076172,-0.1645941840,0.0006835937,-0.0016059028
558331.9300235790,9.7886657718,-0.0381469727,0.0657653809,-0.1657226562,0.0006510417,-0.0007921007
558331.9400235791,9.7895812991,-0.0321960449,0.0639343262,-0.1664279514,0.0006727431,-0.0016927083
558331.9500235789,9.7869873050,-0.0396728516,0.0631713867,-0.1672417535,0.0006401910,-0.0008246528
558331.9600235790,9.7895812991,-0.0321960449,0.0640869141,-0.1684461805,0.0007161458,-0.0016601562
558331.9700235790,9.7871398929,-0.0405883789,0.0659179688,-0.1692491319,0.0006618924,-0.0009006076
558331.9800235790,9.7888183597,-0.0294494629,0.0646972656,-0.1702039930,0.0006401910,-0.0015299479
558331.9900235790,9.7886657718,-0.0430297852,0.0625610352,-0.1710069444,0.0007269965,-0.0011393229
558332.0000235790,9.7886657718,-0.0303649902,0.0633239746,-0.1717990451,0.0006835937,-0.0012912326
558332.0100235790,9.7885131839,-0.0390625000,0.0657653809,-0.1731553819,0.0007378472,-0.0014214410
558332.0200235790,9.7886657718,-0.0347900391,0.0666809082,-0.1737196180,0.0006510417,-0.0010633681
558332.0300235790,9.7882080081,-0.0373840332,0.0627136230,-0.1743923611,0.0006944444,-0.0016384549
558332.0400235790,9.7883605960,-0.0375366211,0.0627136230,-0.1752604167,0.0006944444,-0.0009440104
558332.0500235790,9.7885131839,-0.0337219238,0.0651550293,-0.1755750868,0.0007378472,-0.0017361111
558332.0600235790,9.7882080081,-0.0407409668,0.0669860840,-0.1751736111,0.0006835937,-0.0008355035
558332.0700235791,9.7894287113,-0.0320434570,0.0654602051,-0.1746744792,0.0007161458,-0.0018012153
558332.0800235790,9.7880554202,-0.0444030762,0.0633239746,-0.1741861979,0.0006835937,-0.0008680556
558332.0900235790,9.7900390628,-0.0291442871,0.0643920898,-0.1740125868,0.0007378472,-0.0016493056
558332.1000235790,9.7880554202,-0.0427246094,0.0669860840,-0.1739800347,0.0006835937,-0.0010742187
558332.1100235790,9.7891235355,-0.0318908691,0.0654602051,-0.1740234375,0.0006835937,-0.0013888889
558332.1200235790,9.7879028324,-0.0399780273,0.0640869141,-0.1740993924,0.0006727431,-0.0013563368
558332.1300235790,9.7880554202,-0.0341796875,0.0636291504,-0.1741427951,0.0007269965,-0.0011718750
558332.1400235790,9.7888183597,-0.0373840332,0.0656127930,-0.1741970486,0.0007052951,-0.0014973958
558332.1500235790,9.7886657718,-0.0370788574,0.0660705566,-0.1741102430,0.0006835937,-0.0010416667
558332.1600235790,9.7885131839,-0.0361633301,0.0639343262,-0.1741970486,0.0006944444,-0.0016384549
558332.1700235790,9.7879028324,-0.0393676758,0.0643920898,-0.1741644965,0.0006944444,-0.0009114583
558332.1800235790,9.7888183597,-0.0328063965,0.0653076172,-0.1741536458,0.0007269965,-0.0017252604
558332.1900235791,9.7883605960,-0.0410461426,0.0653076172,-0.1741753472,0.0006835937,-0.0008897569
558332.2000235789,9.7894287113,-0.0325012207,0.0654602051,-0.1741644965,0.0006835937,-0.0016384549
558332.2100235790,9.7871398929,-0.0433349609,0.0636291504,-0.1741861979,0.0007052951,-0.0010199653
558332.2200235790,9.7889709476,-0.0306701660,0.0643920898,-0.1740993924,0.0006944444,-0.0014431424
558332.2300235790,9.7880554202,-0.0421142578,0.0669860840,-0.1741970486,0.0007378472,-0.0013020833
558332.2400235790,9.7886657718,-0.0340270996,0.0654602051,-0.1742404514,0.0006835937,-0.0011827257
558332.2500235790,9.7880554202,-0.0378417969,0.0633239746,-0.1742730035,0.0006944444,-0.0015625000
558332.2600235790,9.7886657718,-0.0379943848,0.0653076172,-0.1741970486,0.0006835937,-0.0008897569
558332.2700235790,9.7888183597,-0.0338745117,0.0653076172,-0.1742187500,0.0007378472,-0.0017469618
558332.2800235790,9.7888183597,-0.0410461426,0.0651550293,-0.1742404514,0.0006727431,-0.0008680556
558332.2900235790,9.7892761234,-0.0326538086,0.0648498535,-0.1741861979,0.0007269965,-0.0017252604
558332.3000235800,9.7863769534,-0.0419616699,0.0636291504,-0.1742404514,0.0006727431,-0.0009331597
558332.3100235800,9.7894287113,-0.0306701660,0.0666809082,-0.1742730035,0.0007486979,-0.0015842014
558332.3200235800,9.7880554202,-0.0434875488,0.0668334961,-0.1742296007,0.0006835937,-0.0010525174
558332.3300235800,9.7892761234,-0.0315856934,0.0634765625,-0.1742621528,0.0006835937,-0.0015082465
558332.3400235800,9.7882080081,-0.0422668457,0.0636291504,-0.1742404514,0.0006835937,-0.0011501736
558332.3500235800,9.7882080081,-0.0315856934,0.0642395020,-0.1742513021,0.0006944444,-0.0013346354
558332.3600235800,9.7886657718,-0.0408935547,0.0665283203,-0.1742730035,0.0006944444,-0.0014105903
558332.3700235800,9.7892761234,-0.0355529785,0.0663757324,-0.1742513021,0.0006835937,-0.0010633681
558332.3800235800,9.7889709476,-0.0355529785,0.0625610352,-0.1743489583,0.0006835937,-0.0016927083
558332.3900235801,9.7879028324,-0.0393676758,0.0640869141,-0.1743055555,0.0006944444,-0.0008138021
558332.4000235799,9.7892761234,-0.0331115723,0.0666809082,-0.1742730035,0.0006944444,-0.0017795139
558332.4100235800,9.7885131839,-0.0424194336,0.0657653809,-0.1742838542,0.0006944444,-0.0008680556
558332.4200235800,9.7908020023,-0.0294494629,0.0639343262,-0.1742838542,0.0007161458,-0.0016927083
558332.4300235800,9.7875976566,-0.0439453125,0.0648498535,-0.1742730035,0.0006727431,-0.0010308160
558332.4400235800,9.7886657718,-0.0312805176,0.0653076172,-0.1742513021,0.0006944444,-0.0013888889
558332.4500235800,9.7888183597,-0.0411987305,0.0654602051,-0.1742404514,0.0007378472,-0.0014214410
558332.4600235800,9.7886657718,-0.0343322754,0.0663757324,-0.1742404514,0.0006618924,-0.0010308160
558332.4700235800,9.7892761234,-0.0358581543,0.0640869141,-0.1742513021,0.0007161458,-0.0017252604
558332.4800235800,9.7871398929,-0.0405883789,0.0642395020,-0.1742621528,0.0006618924,-0.0007812500
558332.4900235800,9.7888183597,-0.0306701660,0.0642395020,-0.1742838542,0.0007378472,-0.0018337674
558332.5000235800,9.7883605960,-0.0436401367,0.0669860840,-0.1743055555,0.0006727431,-0.0008789062
558332.5100235800,9.7894287113,-0.0299072266,0.0654602051,-0.1743164062,0.0007269965,-0.0015516493
558332.5200235799,9.7877502445,-0.0442504883,0.0627136230,-0.1743164062,0.0006618924,-0.0012586806
558332.5300235800,9.7894287113,-0.0340270996,0.0646972656,-0.1743164062,0.0006944444,-0.0011610243
558332.5400235800,9.7888183597,-0.0376892090,0.0668334961,-0.1743055555,0.0006944444,-0.0015842014
558332.5500235800,9.7891235355,-0.0376892090,0.0650024414,-0.1743164062,0.0006835937,-0.0009006076
558332.5600235800,9.7891235355,-0.0344848633,0.0631713867,-0.1743164062,0.0006944444,-0.0017578125
558332.5700235800,9.7872924808,-0.0405883789,0.0643920898,-0.1743489583,0.0007052951,-0.0008246528
558332.5800235800,9.7888183597,-0.0312805176,0.0669860840,-0.1742513021,0.0007161458,-0.0017252604
558332.5900235800,9.7882080081,-0.0434875488,0.0668334961,-0.1742838542,0.0006835937,-0.0009223090
558332.6000235800,9.7901916507,-0.0314331055,0.0640869141,-0.1743381076,0.0006727431,-0.0015950521
558332.6100235800,9.7874450687,-0.0419616699,0.0636291504,-0.1743489583,0.0006835937,-0.0011501736
558332.6200235800,9.7882080081,-0.0305175781,0.0648498535,-0.1743272569,0.0006727431,-0.0012912326
558332.6300235800,9.7886657718,-0.0405883789,0.0669860840,-0.1743706597,0.0007161458,-0.0014865451
558332.6400235801,9.7889709476,-0.0373840332,0.0646972656,-0.1743381076,0.0006618924,-0.0009874132
558332.6500235799,9.7888183597,-0.0352478027,0.0633239746,-0.1743381076,0.0007378472,-0.0016927083
558332.6600235800,9.7880554202,-0.0395202637,0.0653076172,-0.1743381076,0.0006510417,-0.0008029514
558332.6700235800,9.7886657718,-0.0317382813,0.0653076172,-0.1743381076,0.0007269965,-0.0018337674
558332.6800235800,9.7879028324,-0.0453186035,0.0657653809,-0.1743272569,0.0006727431,-0.0008355035
558332.6900235800,9.7906494144,-0.0288391113,0.0643920898,-0.1743598090,0.0006944444,-0.0015950521
558332.7000235800,9.7869873050,-0.0434875488,0.0648498535,-0.1742621528,0.0006835937,-0.0012586806
558332.7100235800,9.7894287113,-0.0320434570,0.0650024414,-0.1741536458,0.0007052951,-0.0011284722
558332.7200235800,9.7877502445,-0.0382995605,0.0651550293,-0.1742513021,0.0007161458,-0.0016384549
558332.7300235800,9.7892761234,-0.0395202637,0.0650024414,-0.1743164062,0.0006944444,-0.0008572049
558332.7400235800,9.7886657718,-0.0332641602,0.0651550293,-0.1743164062,0.0006835937,-0.0018120660
558332.7500235800,9.7874450687,-0.0419616699,0.0651550293,-0.1743164062,0.0006727431,-0.0008138021
558332.7600235800,9.7900390628,-0.0303649902,0.0662231445,-0.1743164062,0.0006944444,-0.0017144097
558332.7700235799,9.7879028324,-0.0434875488,0.0639343262,-0.1743164062,0.0007052951,-0.0010308160
558332.7800235800,9.7900390628,-0.0306701660,0.0651550293,-0.1743706597,0.0006944444,-0.0014865451
558332.7900235800,9.7882080081,-0.0427246094,0.0656127930,-0.1743598090,0.0006835937,-0.0012478299
558332.8000235800,9.7879028324,-0.0331115723,0.0651550293,-0.1742838542,0.0006618924,-0.0012044271
558332.8100235800,9.7886657718,-0.0382995605,0.0648498535,-0.1743598090,0.0007378472,-0.0015299479
558332.8200235800,9.7888183597,-0.0381469727,0.0654602051,-0.1743598090,0.0006835937,-0.0009223090
558332.8300235800,9.7889709476,-0.0352478027,0.0650024414,-0.1744140625,0.0007378472,-0.0017469618
558332.8400235800,9.7875976566,-0.0401306152,0.0650024414,-0.1743923611,0.0006401910,-0.0008246528
558332.8500235800,9.7889709476,-0.0312805176,0.0650024414,-0.1744140625,0.0007269965,-0.0017578125
558332.8600235800,9.7874450687,-0.0434875488,0.0648498535,-0.1743164062,0.0006835937,-0.0008897569
558332.8700235800,9.7897338870,-0.0311279297,0.0656127930,-0.1743272569,0.0006944444,-0.0015842014
558332.8800235800,9.7875976566,-0.0440979004,0.0650024414,-0.1743055555,0.0006618924,-0.0011610243
558332.8900235801,9.7883605960,-0.0309753418,0.0643920898,-0.1742730035,0.0006727431,-0.0012695312
558332.9000235799,9.7879028324,-0.0392150879,0.0648498535,-0.1743706597,0.0007161458,-0.0014973958
558332.9100235800,9.7888183597,-0.0393676758,0.0653076172,-0.1743598090,0.0007052951,-0.0009114583
558332.9200235800,9.7892761234,-0.0340270996,0.0651550293,-0.1744032118,0.0006944444,-0.0017795139
558332.9300235800,9.7874450687,-0.0398254395,0.0654602051,-0.1744140625,0.0006727431,-0.0008246528
558332.9400235800,9.7892761234,-0.0311279297,0.0640869141,-0.1743272569,0.0006727431,-0.0017469618
558332.9500235800,9.7883605960,-0.0447082520,0.0646972656,-0.1743923611,0.0007269965,-0.0009006076
558332.9600235800,9.7895812991,-0.0308227539,0.0656127930,-0.1744574653,0.0006618924,-0.0016276042
558332.9700235800,9.7874450687,-0.0430297852,0.0656127930,-0.1744466146,0.0007052951,-0.0011718750
558332.9800235800,9.7882080081,-0.0311279297,0.0640869141,-0.1744140625,0.0006618924,-0.0012586806
558332.9900235800,9.7888183597,-0.0407409668,0.0657653809,-0.1743923611,0.0007269965,-0.0014756944
558333.0000235800,9.7885131839,-0.0372314453,0.0659179688,-0.1743164062,0.0006727431,-0.0009982639
558333.0100235800,9.7888183597,-0.0350952148,0.0642395020,-0.1746202257,0.0006944444,-0.0016927083
558333.0200235799,9.7875976566,-0.0393676758,0.0648498535,-0.1742621528,0.0006727431,-0.0008246528
558333.0300235800,9.7888183597,-0.0337219238,0.0642395020,-0.1743055555,0.0006944444,-0.0017686632
558333.0400235800,9.7879028324,-0.0437927246,0.0662231445,-0.1743272569,0.0007052951,-0.0009114583
558333.0500235800,9.7894287113,-0.0297546387,0.0656127930,-0.1743706597,0.0007161458,-0.0016601562
558333.0600235800,9.7869873050,-0.0425720215,0.0643920898,-0.1744249132,0.0006727431,-0.0010633681
558333.0700235800,9.7889709476,-0.0317382813,0.0650024414,-0.1744249132,0.0006944444,-0.0013888889
558333.0800235800,9.7875976566,-0.0433349609,0.0653076172,-0.1743923611,0.0006835937,-0.0014105903
558333.0900235800,9.7889709476,-0.0358581543,0.0654602051,-0.1743923611,0.0007052951,-0.0010416667
558333.1000235800,9.7882080081,-0.0349426270,0.0656127930,-0.1743923611,0.0006727431,-0.0017686632
558333.1100235800,9.7880554202,-0.0404357910,0.0650024414,-0.1744249132,0.0006835937,-0.0007269965
558333.1200235800,9.7889709476,-0.0325012207,0.0645446777,-0.1744466146,0.0007161458,-0.0018229167
558333.1300235800,9.7877502445,-0.0450134277,0.0654602051,-0.1744140625,0.0006727431,-0.0008897569
558333.1400235801,9.7894287113,-0.0294494629,0.0659179688,-0.1743706597,0.0006727431,-0.0015950521
558333.1500235799,9.7877502445,-0.0434875488,0.0653076172,-0.1743598090,0.0006835937,-0.0012044271
558333.1600235800,9.7889709476,-0.0340270996,0.0645446777,-0.1743164062,0.0006727431,-0.0012152778
558333.1700235800,9.7892761234,-0.0404357910,0.0643920898,-0.1743272569,0.0007269965,-0.0015733507
558333.1800235800,9.7888183597,-0.0373840332,0.0654602051,-0.1743923611,0.0006944444,-0.0009006076
558333.1900235800,9.7895812991,-0.0332641602,0.0646972656,-0.1744574653,0.0006835937,-0.0017578125
558333.2000235800,9.7882080081,-0.0418090820,0.0654602051,-0.1744249132,0.0006618924,-0.0008029514
558333.2100235800,9.7891235355,-0.0329589844,0.0656127930,-0.1744574653,0.0006944444,-0.0017469618
558333.2200235800,9.7875976566,-0.0434875488,0.0640869141,-0.1744032118,0.0006944444,-0.0009657118
558333.2300235800,9.7898864749,-0.0305175781,0.0653076172,-0.1743706597,0.0006944444,-0.0015733507
558333.2400235800,9.7880554202,-0.0434875488,0.0660705566,-0.1743272569,0.0006835937,-0.0011501736
558333.2500235800,9.7886657718,-0.0321960449,0.0643920898,-0.1743706597,0.0006727431,-0.0013129340
558333.2600235800,9.7889709476,-0.0402832031,0.0645446777,-0.1744032118,0.0007161458,-0.0014431424
558333.2700235799,9.7898864749,-0.0358581543,0.0656127930,-0.1743706597,0.0006618924,-0.0009874132
558333.2800235800,9.7888183597,-0.0366210938,0.0656127930,-0.1743598090,0.0006727431,-0.0016927083
558333.2900235800,9.7880554202,-0.0419616699,0.0654602051,-0.1742838542,0.0006618924,-0.0008355035
558333.3000235800,9.7886657718,-0.0323486328,0.0650024414,-0.1743164062,0.0006944444,-0.0018012153
558333.3100235800,9.7880554202,-0.0430297852,0.0653076172,-0.1742621528,0.0006835937,-0.0008680556
558333.3200235800,9.7901916507,-0.0306701660,0.0659179688,-0.1743598090,0.0006835937,-0.0016493056
558333.3300235800,9.7879028324,-0.0442504883,0.0643920898,-0.1743706597,0.0006510417,-0.0010742187
558333.3400235800,9.7888183597,-0.0315856934,0.0642395020,-0.1744032118,0.0006727431,-0.0013997396
558333.3500235800,9.7885131839,-0.0416564941,0.0659179688,-0.1744140625,0.0006944444,-0.0013780382
558333.3600235800,9.7892761234,-0.0354003906,0.0653076172,-0.1744357639,0.0006835937,-0.0010742187
558333.3700235810,9.7894287113,-0.0375366211,0.0651550293,-0.1745008680,0.0007161458,-0.0017144097
558333.3800235810,9.7877502445,-0.0413513184,0.0653076172,-0.1744574653,0.0006510417,-0.0007921007
558333.3900235810,9.7894287113,-0.0312805176,0.0642395020,-0.1744466146,0.0007161458,-0.0018663194
558333.4000235810,9.7882080081,-0.0431823730,0.0651550293,-0.1744357639,0.0006944444,-0.0008029514
558333.4100235810,9.7898864749,-0.0296020508,0.0665283203,-0.1744357639,0.0006727431,-0.0016384549
558333.4200235810,9.7879028324,-0.0450134277,0.0646972656,-0.1743272569,0.0006618924,-0.0011393229
558333.4300235810,9.7886657718,-0.0321960449,0.0642395020,-0.1743489583,0.0006727431,-0.0013020833
558333.4400235810,9.7885131839,-0.0402832031,0.0659179688,-0.1743381076,0.0007161458,-0.0014973958
558333.4500235810,9.7888183597,-0.0375366211,0.0668334961,-0.1743489583,0.0007052951,-0.0009548611
558333.4600235811,9.7892761234,-0.0350952148,0.0645446777,-0.1743489583,0.0006618924,-0.0017795139
558333.4700235809,9.7877502445,-0.0418090820,0.0634765625,-0.1743923611,0.0006727431,-0.0007812500
558333.4800235810,9.7895812991,-0.0306701660,0.0653076172,-0.1744140625,0.0006835937,-0.0017795139
558333.4900235810,9.7879028324,-0.0448608398,0.0665283203,-0.1744032118,0.0006835937,-0.0009223090
558333.5000235810,9.7894287113,-0.0317382813,0.0653076172,-0.1744466146,0.0006835937,-0.0015625000
558333.5100235810,9.7869873050,-0.0433349609,0.0634765625,-0.1744466146,0.0006727431,-0.0012586806
558333.5200235810,9.7883605960,-0.0321960449,0.0639343262,-0.1744140625,0.0007052951,-0.0011718750
558333.5300235810,9.7879028324,-0.0389099121,0.0680541992,-0.1744140625,0.0006944444,-0.0015950521
558333.5400235810,9.7898864749,-0.0393676758,0.0656127930,-0.1744357639,0.0006618924,-0.0009114583
558333.5500235810,9.7883605960,-0.0347900391,0.0631713867,-0.1743706597,0.0006835937,-0.0017469618
558333.5600235810,9.7872924808,-0.0415039063,0.0633239746,-0.1743164062,0.0006727431,-0.0008355035
558333.5700235810,9.7888183597,-0.0318908691,0.0679016113,-0.1743923611,0.0007161458,-0.0017578125
558333.5800235810,9.7877502445,-0.0447082520,0.0677490234,-0.1743489583,0.0006727431,-0.0009114583
558333.5900235811,9.7892761234,-0.0305175781,0.0634765625,-0.1744140625,0.0006618924,-0.0015190972
558333.6000235809,9.7875976566,-0.0433349609,0.0622558594,-0.1743706597,0.0006944444,-0.0012478299
558333.6100235810,9.7889709476,-0.0334167480,0.0659179688,-0.1744140625,0.0006618924,-0.0012369792
558333.6200235810,9.7877502445,-0.0389099121,0.0679016113,-0.1744466146,0.0006835937,-0.0015190972
558333.6300235810,9.7891235355,-0.0382995605,0.0653076172,-0.1744357639,0.0006727431,-0.0009548611
558333.6400235810,9.7888183597,-0.0355529785,0.0617980957,-0.1744357639,0.0006835937,-0.0018120660
558333.6500235810,9.7869873050,-0.0416564941,0.0650024414,-0.1744140625,0.0006944444,-0.0007812500
558333.6600235810,9.7879028324,-0.0314331055,0.0683593750,-0.1744140625,0.0006510417,-0.0017686632
558333.6700235810,9.7872924808,-0.0439453125,0.0656127930,-0.1743381076,0.0006835937,-0.0009548611
558333.6800235810,9.7900390628,-0.0300598145,0.0624084473,-0.1744140625,0.0007161458,-0.0015625000
558333.6900235810,9.7868347171,-0.0425720215,0.0642395020,-0.1744249132,0.0006944444,-0.0012369792
558333.7000235810,9.7888183597,-0.0332641602,0.0685119629,-0.1744249132,0.0006727431,-0.0011718750
558333.7100235811,9.7872924808,-0.0396728516,0.0666809082,-0.1744140625,0.0006835937,-0.0016276042
558333.7200235809,9.7888183597,-0.0384521484,0.0627136230,-0.1743706597,0.0006835937,-0.0008789062
558333.7300235810,9.7888183597,-0.0329589844,0.0633239746,-0.1744032118,0.0006944444,-0.0018012153
558333.7400235810,9.7882080081,-0.0427246094,0.0672912598,-0.1744032118,0.0006618924,-0.0008138021
558333.7500235810,9.7889709476,-0.0326538086,0.0677490234,-0.1744032118,0.0006835937,-0.0017144097
558333.7600235810,9.7875976566,-0.0445556641,0.0639343262,-0.1742838542,0.0006510417,-0.0009874132
558333.7700235810,9.7891235355,-0.0305175781,0.0627136230,-0.1742730035,0.0007378472,-0.0015190972
558333.7800235810,9.7879028324,-0.0421142578,0.0657653809,-0.1743598090,0.0006727431,-0.0012152778
558333.7900235810,9.7886657718,-0.0340270996,0.0677490234,-0.1744249132,0.0006727431,-0.0012369792
558333.8000235810,9.7886657718,-0.0401306152,0.0654602051,-0.1745117187,0.0006510417,-0.0015082465
558333.8100235810,9.7891235355,-0.0364685059,0.0625610352,-0.1744900174,0.0006944444,-0.0009765625
558333.8200235810,9.7892761234,-0.0350952148,0.0634765625,-0.1744249132,0.0007269965,-0.0016927083
558333.8300235810,9.7874450687,-0.0416564941,0.0683593750,-0.1744249132,0.0006618924,-0.0008355035
558333.8400235811,9.7889709476,-0.0328063965,0.0671386719,-0.1744140625,0.0006727431,-0.0017795139
558333.8500235809,9.7872924808,-0.0434875488,0.0631713867,-0.1743489583,0.0006835937,-0.0008897569
558333.8600235810,9.7898864749,-0.0300598145,0.0631713867,-0.1744140625,0.0006944444,-0.0015950521
558333.8700235810,9.7875976566,-0.0442504883,0.0666809082,-0.1743923611,0.0006835937,-0.0011610243
558333.8800235810,9.7886657718,-0.0334167480,0.0669860840,-0.1743381076,0.0006510417,-0.0013129340
558333.8900235810,9.7886657718,-0.0395202637,0.0639343262,-0.1743055555,0.0007052951,-0.0014756944
558333.9000235810,9.7891235355,-0.0364685059,0.0640869141,-0.1744032118,0.0006944444,-0.0009874132
558333.9100235810,9.7889709476,-0.0366210938,0.0656127930,-0.1744466146,0.0007378472,-0.0017361111
558333.9200235810,9.7874450687,-0.0413513184,0.0669860840,-0.1744249132,0.0006401910,-0.0008138021
558333.9300235810,9.7885131839,-0.0325012207,0.0648498535,-0.1744249132,0.0006835937,-0.0018012153
558333.9400235810,9.7886657718,-0.0437927246,0.0637817383,-0.1744032118,0.0006835937,-0.0008897569
558333.9500235810,9.7901916507,-0.0299072266,0.0659179688,-0.1744574653,0.0007161458,-0.0015842014
558333.9600235811,9.7869873050,-0.0440979004,0.0671386719,-0.1744466146,0.0006727431,-0.0012152778
558333.9700235809,9.7891235355,-0.0331115723,0.0656127930,-0.1744466146,0.0006510417,-0.0012369792
558333.9800235810,9.7885131839,-0.0389099121,0.0634765625,-0.1744466146,0.0007161458,-0.0015516493
558333.9900235810,9.7889709476,-0.0381469727,0.0651550293,-0.1743923611,0.0006944444,-0.0008897569
558334.0000235810,9.7892761234,-0.0354003906,0.0659179688,-0.1743706597,0.0006727431,-0.0018120660
558334.0100235810,9.7871398929,-0.0427246094,0.0659179688,-0.1746202257,0.0006510417,-0.0007921007
558334.0200235810,9.7889709476,-0.0302124023,0.0630187988,-0.1743489583,0.0006835937,-0.0017795139
558334.0300235810,9.7877502445,-0.0454711914,0.0648498535,-0.1743598090,0.0006835937,-0.0009657118
558334.0400235810,9.7894287113,-0.0321960449,0.0669860840,-0.1744032118,0.0007269965,-0.0014648437
558334.0500235810,9.7880554202,-0.0416564941,0.0660705566,-0.1744032118,0.0006510417,-0.0013346354
558334.0600235810,9.7888183597,-0.0344848633,0.0639343262,-0.1744032118,0.0006727431,-0.0011610243
558334.0700235810,9.7888183597,-0.0387573242,0.0648498535,-0.1743706597,0.0007161458,-0.0014973958
558334.0800235810,9.7900390628,-0.0387573242,0.0662231445,-0.1743598090,0.0006944444,-0.0010525174
558334.0900235811,9.7883605960,-0.0367736816,0.0650024414,-0.1743923611,0.0006835937,-0.0016601562
558334.1000235809,9.7877502445,-0.0386047363,0.0642395020,-0.1743923611,0.0006510417,-0.0008789062
558334.1100235810,9.7885131839,-0.0335693359,0.0645446777,-0.1744140625,0.0007161458,-0.0017795139
558334.1200235810,9.7879028324,-0.0451660156,0.0662231445,-0.1743381076,0.0006618924,-0.0008029514
558334.1300235810,9.7897338870,-0.0312805176,0.0660705566,-0.1744140625,0.0006835937,-0.0017144097
558334.1400235810,9.7874450687,-0.0439453125,0.0642395020,-0.1744032118,0.0006401910,-0.0010742187
558334.1500235810,9.7883605960,-0.0320434570,0.0640869141,-0.1744249132,0.0006835937,-0.0013454861
558334.1600235810,9.7877502445,-0.0422668457,0.0668334961,-0.1743923611,0.0006835937,-0.0014431424
558334.1700235810,9.7885131839,-0.0370788574,0.0660705566,-0.1744249132,0.0006727431,-0.0009657118
558334.1800235810,9.7886657718,-0.0361633301,0.0645446777,-0.1744357639,0.0006835937,-0.0017686632
558334.1900235810,9.7879028324,-0.0418090820,0.0636291504,-0.1743598090,0.0006401910,-0.0008029514
558334.2000235810,9.7886657718,-0.0328063965,0.0654602051,-0.1744249132,0.0007161458,-0.0018012153
558334.2100235811,9.7874450687,-0.0451660156,0.0665283203,-0.1744249132,0.0006618924,-0.0008897569
558334.2200235809,9.7906494144,-0.0305175781,0.0656127930,-0.1744574653,0.0006727431,-0.0016384549
558334.2300235810,9.7877502445,-0.0430297852,0.0650024414,-0.1744791667,0.0006835937,-0.0011718750
558334.2400235810,9.7886657718,-0.0338745117,0.0646972656,-0.1744574653,0.0006618924,-0.0012478299
558334.2500235810,9.7886657718,-0.0408935547,0.0660705566,-0.1744249132,0.0007161458,-0.0015407986
558334.2600235810,9.7883605960,-0.0375366211,0.0654602051,-0.1743381076,0.0006618924,-0.0009440104
558334.2700235810,9.7894287113,-0.0357055664,0.0640869141,-0.1743598090,0.0006944444,-0.0017686632
558334.2800235810,9.7879028324,-0.0424194336,0.0646972656,-0.1743489583,0.0006401910,-0.0008246528
558334.2900235810,9.7886657718,-0.0325012207,0.0659179688,-0.1743598090,0.0007269965,-0.0017686632
558334.3000235810,9.7880554202,-0.0436401367,0.0650024414,-0.1743706597,0.0006618924,-0.0009223090
558334.3100235810,9.7897338870,-0.0315856934,0.0645446777,-0.1744574653,0.0007161458,-0.0015625000
558334.3200235810,9.7877502445,-0.0445556641,0.0645446777,-0.1744466146,0.0006618924,-0.0011827257
558334.3300235810,9.7882080081,-0.0338745117,0.0659179688,-0.1743706597,0.0006727431,-0.0012586806
558334.3400235811,9.7882080081,-0.0398254395,0.0657653809,-0.1744357639,0.0006618924,-0.0015516493
558334.3500235809,9.7885131839,-0.0370788574,0.0642395020,-0.1743923611,0.0006835937,-0.0009114583
558334.3600235810,9.7885131839,-0.0357055664,0.0650024414,-0.1744249132,0.0006944444,-0.0017795139
558334.3700235810,9.7880554202,-0.0434875488,0.0659179688,-0.1744466146,0.0006618924,-0.0008138021
558334.3800235810,9.7894287113,-0.0297546387,0.0654602051,-0.1744791667,0.0006835937,-0.0017686632
558334.3900235810,9.7882080081,-0.0445556641,0.0645446777,-0.1744140625,0.0006618924,-0.0009223090
558334.4000235810,9.7895812991,-0.0328063965,0.0645446777,-0.1743923611,0.0006944444,-0.0015733507
558334.4100235810,9.7872924808,-0.0447082520,0.0651550293,-0.1743706597,0.0006618924,-0.0012044271
558334.4200235810,9.7882080081,-0.0334167480,0.0657653809,-0.1743923611,0.0006727431,-0.0012912326
558334.4300235810,9.7880554202,-0.0405883789,0.0656127930,-0.1744140625,0.0007161458,-0.0014865451
558334.4400235810,9.7894287113,-0.0369262695,0.0645446777,-0.1744574653,0.0006618924,-0.0010308160
558334.4500235820,9.7889709476,-0.0375366211,0.0654602051,-0.1744466146,0.0006835937,-0.0016927083
558334.4600235820,9.7877502445,-0.0396728516,0.0659179688,-0.1744032118,0.0006510417,-0.0008246528
558334.4700235820,9.7889709476,-0.0328063965,0.0653076172,-0.1744249132,0.0006835937,-0.0017795139
558334.4800235820,9.7871398929,-0.0442504883,0.0646972656,-0.1743489583,0.0006510417,-0.0008789062
558334.4900235820,9.7892761234,-0.0320434570,0.0653076172,-0.1744466146,0.0006944444,-0.0016710069
558334.5000235820,9.7872924808,-0.0442504883,0.0653076172,-0.1744791667,0.0006401910,-0.0010742187
558334.5100235820,9.7883605960,-0.0323486328,0.0639343262,-0.1745008680,0.0006835937,-0.0013346354
558334.5200235820,9.7886657718,-0.0415039063,0.0653076172,-0.1744357639,0.0006618924,-0.0014322917
558334.5300235820,9.7886657718,-0.0375366211,0.0662231445,-0.1744140625,0.0006835937,-0.0009982639
558334.5400235821,9.7897338870,-0.0369262695,0.0657653809,-0.1744032118,0.0006835937,-0.0017578125
558334.5500235819,9.7880554202,-0.0418090820,0.0645446777,-0.1743381076,0.0006618924,-0.0008029514
558334.5600235820,9.7892761234,-0.0323486328,0.0650024414,-0.1743598090,0.0006944444,-0.0018229167
558334.5700235820,9.7880554202,-0.0459289551,0.0659179688,-0.1743598090,0.0006727431,-0.0008897569
558334.5800235820,9.7897338870,-0.0312805176,0.0653076172,-0.1743923611,0.0006944444,-0.0016276042
558334.5900235820,9.7886657718,-0.0430297852,0.0646972656,-0.1744140625,0.0006618924,-0.0011718750
558334.6000235820,9.7877502445,-0.0337219238,0.0646972656,-0.1743923611,0.0006618924,-0.0012586806
558334.6100235820,9.7883605960,-0.0408935547,0.0653076172,-0.1744357639,0.0006944444,-0.0015516493
558334.6200235820,9.7886657718,-0.0382995605,0.0657653809,-0.1743598090,0.0006727431,-0.0009223090
558334.6300235820,9.7894287113,-0.0357055664,0.0651550293,-0.1744357639,0.0006944444,-0.0018229167
558334.6400235820,9.7875976566,-0.0434875488,0.0643920898,-0.1744140625,0.0006184896,-0.0007486979
558334.6500235820,9.7891235355,-0.0308227539,0.0651550293,-0.1744574653,0.0007161458,-0.0018012153
558334.6600235821,9.7880554202,-0.0457763672,0.0657653809,-0.1744357639,0.0006835937,-0.0009548611
558334.6700235819,9.7904968265,-0.0311279297,0.0654602051,-0.1744466146,0.0006835937,-0.0014756944
558334.6800235820,9.7880554202,-0.0431823730,0.0656127930,-0.1744140625,0.0006618924,-0.0013888889
558334.6900235820,9.7880554202,-0.0357055664,0.0659179688,-0.1743381076,0.0006618924,-0.0010416667
558334.7000235820,9.7882080081,-0.0370788574,0.0657653809,-0.1743706597,0.0006835937,-0.0016927083
558334.7100235820,9.7883605960,-0.0398254395,0.0651550293,-0.1743706597,0.0006618924,-0.0008789062
558334.7200235820,9.7889709476,-0.0347900391,0.0645446777,-0.1744032118,0.0006835937,-0.0017361111
558334.7300235820,9.7879028324,-0.0428771973,0.0643920898,-0.1743489583,0.0006510417,-0.0008897569
558334.7400235820,9.7891235355,-0.0334167480,0.0662231445,-0.1743598090,0.0006835937,-0.0017469618
558334.7500235820,9.7880554202,-0.0437927246,0.0656127930,-0.1743706597,0.0006618924,-0.0009548611
558334.7600235820,9.7895812991,-0.0315856934,0.0645446777,-0.1744032118,0.0006944444,-0.0015733507
558334.7700235820,9.7874450687,-0.0445556641,0.0666809082,-0.1744357639,0.0006727431,-0.0011393229
558334.7800235820,9.7877502445,-0.0335693359,0.0654602051,-0.1744032118,0.0006401910,-0.0013129340
558334.7900235821,9.7883605960,-0.0404357910,0.0645446777,-0.1744357639,0.0006944444,-0.0015082465
558334.8000235819,9.7883605960,-0.0360107422,0.0651550293,-0.1743923611,0.0006510417,-0.0009874132
558334.8100235820,9.7880554202,-0.0378417969,0.0659179688,-0.1743598090,0.0006835937,-0.0017144097
558334.8200235820,9.7877502445,-0.0422668457,0.0651550293,-0.1743489583,0.0006510417,-0.0009006076
558334.8300235820,9.7888183597,-0.0328063965,0.0646972656,-0.1744249132,0.0006835937,-0.0018012153
558334.8400235820,9.7888183597,-0.0425720215,0.0637817383,-0.1743923611,0.0006727431,-0.0008789062
558334.8500235820,9.7891235355,-0.0321960449,0.0656127930,-0.1744249132,0.0006618924,-0.0016493056
558334.8600235820,9.7877502445,-0.0460815430,0.0650024414,-0.1744249132,0.0006510417,-0.0010850694
558334.8700235820,9.7886657718,-0.0318908691,0.0639343262,-0.1743706597,0.0006510417,-0.0013997396
558334.8800235820,9.7875976566,-0.0407409668,0.0660705566,-0.1744140625,0.0006727431,-0.0014214410
558334.8900235820,9.7888183597,-0.0358581543,0.0657653809,-0.1744032118,0.0006835937,-0.0010091146
558334.9000235820,9.7892761234,-0.0384521484,0.0653076172,-0.1744357639,0.0006835937,-0.0017469618
558334.9100235821,9.7879028324,-0.0413513184,0.0648498535,-0.1743272569,0.0006510417,-0.0008029514
558334.9200235819,9.7891235355,-0.0315856934,0.0648498535,-0.1744357639,0.0006944444,-0.0018229167
558334.9300235820,9.7885131839,-0.0440979004,0.0659179688,-0.1743923611,0.0006727431,-0.0008789062
558334.9400235820,9.7900390628,-0.0323486328,0.0657653809,-0.1744249132,0.0006727431,-0.0016059028
558334.9500235820,9.7872924808,-0.0456237793,0.0654602051,-0.1744140625,0.0006727431,-0.0012152778
558334.9600235820,9.7879028324,-0.0329589844,0.0650024414,-0.1744249132,0.0006510417,-0.0012586806
558334.9700235820,9.7880554202,-0.0387573242,0.0650024414,-0.1744140625,0.0007161458,-0.0015190972
558334.9800235820,9.7889709476,-0.0384521484,0.0659179688,-0.1743706597,0.0006618924,-0.0009548611
558334.9900235820,9.7891235355,-0.0376892090,0.0653076172,-0.1743923611,0.0006835937,-0.0017252604
558335.0000235820,9.7868347171,-0.0405883789,0.0645446777,-0.1743489583,0.0006076389,-0.0009006076
558335.0100235820,9.7882080081,-0.0320434570,0.0653076172,-0.1746961805,0.0007161458,-0.0017469618
558335.0200235820,9.7888183597,-0.0445556641,0.0651550293,-0.1743489583,0.0006510417,-0.0009006076
558335.0300235820,9.7897338870,-0.0334167480,0.0659179688,-0.1744249132,0.0006835937,-0.0016710069
558335.0400235821,9.7872924808,-0.0439453125,0.0645446777,-0.1744032118,0.0006835937,-0.0010742187
558335.0500235819,9.7888183597,-0.0308227539,0.0643920898,-0.1744032118,0.0006510417,-0.0014105903
558335.0600235820,9.7877502445,-0.0431823730,0.0656127930,-0.1744032118,0.0006835937,-0.0013780382
558335.0700235820,9.7891235355,-0.0375366211,0.0651550293,-0.1744249132,0.0006618924,-0.0010633681
558335.0800235820,9.7882080081,-0.0384521484,0.0642395020,-0.1744140625,0.0006618924,-0.0017361111
558335.0900235820,9.7874450687,-0.0393676758,0.0656127930,-0.1743706597,0.0006727431,-0.0008138021
558335.1000235820,9.7888183597,-0.0332641602,0.0666809082,-0.1744032118,0.0006727431,-0.0018012153
558335.1100235820,9.7880554202,-0.0453186035,0.0653076172,-0.1743706597,0.0006727431,-0.0008789062
558335.1200235820,9.7901916507,-0.0323486328,0.0651550293,-0.1743598090,0.0006835937,-0.0016818576
558335.1300235820,9.7883605960,-0.0436401367,0.0650024414,-0.1743489583,0.0006618924,-0.0010850694
558335.1400235820,9.7889709476,-0.0320434570,0.0654602051,-0.1742838542,0.0006401910,-0.0013563368
558335.1500235820,9.7875976566,-0.0437927246,0.0654602051,-0.1743381076,0.0006835937,-0.0014322917
558335.1600235821,9.7892761234,-0.0375366211,0.0637817383,-0.1744140625,0.0006727431,-0.0010308160
558335.1700235819,9.7892761234,-0.0366210938,0.0651550293,-0.1745008680,0.0007161458,-0.0017578125
558335.1800235820,9.7865295413,-0.0411987305,0.0659179688,-0.1744357639,0.0006401910,-0.0007921007
558335.1900235820,9.7892761234,-0.0341796875,0.0662231445,-0.1744357639,0.0006618924,-0.0017795139
558335.2000235820,9.7882080081,-0.0448608398,0.0643920898,-0.1744140625,0.0006727431,-0.0008897569
558335.2100235820,9.7895812991,-0.0305175781,0.0651550293,-0.1743598090,0.0006944444,-0.0016601562
558335.2200235820,9.7877502445,-0.0433349609,0.0648498535,-0.1744466146,0.0006401910,-0.0010850694
558335.2300235820,9.7885131839,-0.0317382813,0.0662231445,-0.1744249132,0.0006510417,-0.0013346354
558335.2400235820,9.7882080081,-0.0445556641,0.0663757324,-0.1744249132,0.0006727431,-0.0014539931
558335.2500235820,9.7900390628,-0.0366210938,0.0637817383,-0.1744032118,0.0006727431,-0.0010416667
558335.2600235820,9.7882080081,-0.0369262695,0.0642395020,-0.1744140625,0.0006727431,-0.0017144097
558335.2700235820,9.7880554202,-0.0424194336,0.0654602051,-0.1743489583,0.0006510417,-0.0007812500
558335.2800235820,9.7877502445,-0.0343322754,0.0669860840,-0.1743489583,0.0006618924,-0.0018988715
558335.2900235821,9.7886657718,-0.0454711914,0.0650024414,-0.1743598090,0.0006944444,-0.0008789062
558335.3000235819,9.7897338870,-0.0297546387,0.0636291504,-0.1744140625,0.0006618924,-0.0016059028
558335.3100235820,9.7877502445,-0.0451660156,0.0659179688,-0.1743923611,0.0006944444,-0.0012152778
558335.3200235820,9.7891235355,-0.0343322754,0.0662231445,-0.1744249132,0.0006401910,-0.0012152778
558335.3300235820,9.7886657718,-0.0389099121,0.0657653809,-0.1744032118,0.0006835937,-0.0016276042
558335.3400235820,9.7891235355,-0.0381469727,0.0643920898,-0.1744249132,0.0006618924,-0.0008789062
558335.3500235820,9.7898864749,-0.0354003906,0.0645446777,-0.1744140625,0.0006944444,-0.0018229167
558335.3600235820,9.7872924808,-0.0442504883,0.0659179688,-0.1744140625,0.0006510417,-0.0008246528
558335.3700235820,9.7892761234,-0.0325012207,0.0657653809,-0.1744249132,0.0006727431,-0.0017469618
558335.3800235820,9.7872924808,-0.0454711914,0.0645446777,-0.1744140625,0.0006510417,-0.0009874132
558335.3900235820,9.7892761234,-0.0329589844,0.0650024414,-0.1744249132,0.0006727431,-0.0014865451
558335.4000235820,9.7880554202,-0.0448608398,0.0657653809,-0.1743489583,0.0006510417,-0.0013129340
558335.4100235821,9.7885131839,-0.0358581543,0.0651550293,-0.1743272569,0.0006510417,-0.0012261285
558335.4200235819,9.7885131839,-0.0393676758,0.0642395020,-0.1743055555,0.0006727431,-0.0015625000
558335.4300235820,9.7892761234,-0.0390625000,0.0656127930,-0.1743923611,0.0007052951,-0.0009548611
558335.4400235820,9.7901916507,-0.0364685059,0.0651550293,-0.1744032118,0.0006727431,-0.0017686632
558335.4500235820,9.7877502445,-0.0421142578,0.0648498535,-0.1744249132,0.0006618924,-0.0008246528
558335.4600235820,9.7883605960,-0.0320434570,0.0651550293,-0.1744357639,0.0006835937,-0.0017795139
558335.4700235820,9.7880554202,-0.0450134277,0.0643920898,-0.1743706597,0.0006618924,-0.0009006076
558335.4800235820,9.7889709476,-0.0326538086,0.0650024414,-0.1744249132,0.0006835937,-0.0016059028
558335.4900235820,9.7885131839,-0.0451660156,0.0650024414,-0.1744249132,0.0006618924,-0.0012152778
558335.5000235820,9.7879028324,-0.0332641602,0.0653076172,-0.1744140625,0.0006401910,-0.0012586806
558335.5100235820,9.7880554202,-0.0418090820,0.0654602051,-0.1744249132,0.0006944444,-0.0015190972
558335.5200235830,9.7892761234,-0.0392150879,0.0656127930,-0.1744466146,0.0006510417,-0.0009657118
558335.5300235830,9.7892761234,-0.0367736816,0.0657653809,-0.1744140625,0.0007161458,-0.0018120660
558335.5400235830,9.7875976566,-0.0425720215,0.0646972656,-0.1743706597,0.0006076389,-0.0008029514
558335.5500235830,9.7895812991,-0.0317382813,0.0651550293,-0.1743923611,0.0006944444,-0.0018120660
558335.5600235830,9.7877502445,-0.0463867188,0.0654602051,-0.1743923611,0.0006618924,-0.0009114583
558335.5700235830,9.7891235355,-0.0317382813,0.0645446777,-0.1744357639,0.0006835937,-0.0015625000
558335.5800235830,9.7874450687,-0.0439453125,0.0648498535,-0.1744900174,0.0006401910,-0.0012369792
558335.5900235830,9.7888183597,-0.0344848633,0.0654602051,-0.1744574653,0.0006618924,-0.0012152778
558335.6000235830,9.7882080081,-0.0415039063,0.0653076172,-0.1744249132,0.0006727431,-0.0015950521
558335.6100235831,9.7883605960,-0.0396728516,0.0654602051,-0.1744032118,0.0006618924,-0.0009223090
558335.6200235829,9.7891235355,-0.0354003906,0.0648498535,-0.1743923611,0.0006727431,-0.0018120660
558335.6300235830,9.7872924808,-0.0428771973,0.0653076172,-0.1743598090,0.0006510417,-0.0008138021
558335.6400235830,9.7882080081,-0.0326538086,0.0657653809,-0.1743381076,0.0006618924,-0.0017469618
558335.6500235830,9.7874450687,-0.0453186035,0.0650024414,-0.1743598090,0.0006835937,-0.0009657118
558335.6600235830,9.7895812991,-0.0329589844,0.0645446777,-0.1743706597,0.0006618924,-0.0015625000
558335.6700235830,9.7877502445,-0.0433349609,0.0654602051,-0.1743706597,0.0006727431,-0.0012261285
558335.6800235830,9.7888183597,-0.0343322754,0.0657653809,-0.1743489583,0.0006510417,-0.0013020833
558335.6900235830,9.7883605960,-0.0422668457,0.0657653809,-0.1743272569,0.0006835937,-0.0014322917
558335.7000235830,9.7883605960,-0.0369262695,0.0643920898,-0.1744032118,0.0006618924,-0.0010742187
558335.7100235830,9.7889709476,-0.0382995605,0.0646972656,-0.1743489583,0.0007161458,-0.0016710069
558335.7200235830,9.7877502445,-0.0401306152,0.0657653809,-0.1744249132,0.0006076389,-0.0008789062
558335.7300235830,9.7880554202,-0.0338745117,0.0651550293,-0.1744466146,0.0006835937,-0.0018229167
558335.7400235831,9.7879028324,-0.0451660156,0.0643920898,-0.1743489583,0.0006510417,-0.0008246528
558335.7500235830,9.7894287113,-0.0317382813,0.0648498535,-0.1744032118,0.0006944444,-0.0017252604
558335.7600235830,9.7874450687,-0.0462341309,0.0657653809,-0.1744466146,0.0006727431,-0.0011176215
558335.7700235830,9.7889709476,-0.0317382813,0.0654602051,-0.1744574653,0.0006618924,-0.0013129340
558335.7800235830,9.7885131839,-0.0418090820,0.0651550293,-0.1744249132,0.0006835937,-0.0015190972
558335.7900235830,9.7888183597,-0.0401306152,0.0653076172,-0.1743923611,0.0006835937,-0.0009114583
558335.8000235830,9.7894287113,-0.0357055664,0.0653076172,-0.1744032118,0.0006618924,-0.0018554687
558335.8100235830,9.7875976566,-0.0434875488,0.0654602051,-0.1743272569,0.0006510417,-0.0007921007
558335.8200235830,9.7888183597,-0.0320434570,0.0659179688,-0.1743489583,0.0006618924,-0.0017795139
558335.8300235830,9.7886657718,-0.0462341309,0.0643920898,-0.1743489583,0.0006727431,-0.0009657118
558335.8400235830,9.7900390628,-0.0317382813,0.0646972656,-0.1744249132,0.0006835937,-0.0015407986
558335.8500235830,9.7875976566,-0.0439453125,0.0659179688,-0.1744574653,0.0006835937,-0.0012912326
558335.8600235831,9.7891235355,-0.0355529785,0.0653076172,-0.1744249132,0.0006076389,-0.0011610243
558335.8700235829,9.7882080081,-0.0404357910,0.0642395020,-0.1744140625,0.0007161458,-0.0016601562
558335.8800235830,9.7886657718,-0.0396728516,0.0651550293,-0.1743598090,0.0006401910,-0.0008789062
558335.8900235830,9.7891235355,-0.0352478027,0.0657653809,-0.1744249132,0.0007161458,-0.0018012153
558335.9000235830,9.7874450687,-0.0454711914,0.0660705566,-0.1744249132,0.0006401910,-0.0008246528
558335.9100235830,9.7889709476,-0.0320434570,0.0648498535,-0.1744791667,0.0006835937,-0.0017795139
558335.9200235830,9.7875976566,-0.0453186035,0.0648498535,-0.1744466146,0.0006510417,-0.0009548611
558335.9300235830,9.7897338870,-0.0309753418,0.0645446777,-0.1744032118,0.0006835937,-0.0015625000
558335.9400235830,9.7880554202,-0.0439453125,0.0654602051,-0.1744140625,0.0006618924,-0.0013020833
558335.9500235830,9.7879028324,-0.0366210938,0.0665283203,-0.1743598090,0.0006618924,-0.0011393229
558335.9600235830,9.7886657718,-0.0393676758,0.0650024414,-0.1743923611,0.0006618924,-0.0016710069
558335.9700235830,9.7886657718,-0.0398254395,0.0653076172,-0.1743706597,0.0006727431,-0.0008897569
558335.9800235830,9.7895812991,-0.0340270996,0.0651550293,-0.1743598090,0.0006835937,-0.0018012153
558335.9900235831,9.7874450687,-0.0445556641,0.0651550293,-0.1743923611,0.0006076389,-0.0008355035
558336.0000235830,9.7886657718,-0.0323486328,0.0654602051,-0.1743381076,0.0006618924,-0.0017686632
558336.0100235830,9.7874450687,-0.0451660156,0.0643920898,-0.1746853299,0.0006618924,-0.0009982639
558336.0200235830,9.7894287113,-0.0312805176,0.0648498535,-0.1744140625,0.0006835937,-0.0015407986
558336.0300235830,9.7883605960,-0.0444030762,0.0669860840,-0.1744466146,0.0006835937,-0.0012586806
558336.0400235830,9.7874450687,-0.0343322754,0.0642395020,-0.1744466146,0.0006401910,-0.0012369792
558336.0500235830,9.7874450687,-0.0408935547,0.0640869141,-0.1744791667,0.0006944444,-0.0015842014
558336.0600235830,9.7889709476,-0.0384521484,0.0662231445,-0.1744357639,0.0006510417,-0.0009114583
558336.0700235830,9.7892761234,-0.0367736816,0.0672912598,-0.1744249132,0.0006835937,-0.0018337674
558336.0800235830,9.7875976566,-0.0440979004,0.0650024414,-0.1743706597,0.0006184896,-0.0008246528
558336.0900235830,9.7894287113,-0.0317382813,0.0639343262,-0.1744357639,0.0006835937,-0.0018120660
558336.1000235830,9.7886657718,-0.0456237793,0.0646972656,-0.1744357639,0.0006727431,-0.0009440104
558336.1100235831,9.7894287113,-0.0318908691,0.0668334961,-0.1744032118,0.0006618924,-0.0015190972
558336.1200235829,9.7882080081,-0.0442504883,0.0660705566,-0.1744466146,0.0006727431,-0.0013671875
558336.1300235830,9.7879028324,-0.0358581543,0.0642395020,-0.1744140625,0.0006293403,-0.0010850694
558336.1400235830,9.7886657718,-0.0386047363,0.0639343262,-0.1744249132,0.0006618924,-0.0017144097
558336.1500235830,9.7895812991,-0.0408935547,0.0654602051,-0.1743164062,0.0006944444,-0.0008355035
558336.1600235830,9.7877502445,-0.0346374512,0.0665283203,-0.1744140625,0.0006618924,-0.0018012153
558336.1700235830,9.7880554202,-0.0445556641,0.0650024414,-0.1744249132,0.0006618924,-0.0008897569
558336.1800235830,9.7882080081,-0.0320434570,0.0640869141,-0.1744574653,0.0006618924,-0.0016818576
558336.1900235830,9.7868347171,-0.0454711914,0.0651550293,-0.1744466146,0.0006727431,-0.0010416667
558336.2000235830,9.7900390628,-0.0331115723,0.0663757324,-0.1744032118,0.0006618924,-0.0014756944
558336.2100235830,9.7879028324,-0.0434875488,0.0660705566,-0.1743923611,0.0006618924,-0.0013237847
558336.2200235830,9.7886657718,-0.0360107422,0.0630187988,-0.1743598090,0.0006401910,-0.0011718750
558336.2300235830,9.7885131839,-0.0407409668,0.0643920898,-0.1743598090,0.0006835937,-0.0015407986
558336.2400235831,9.7883605960,-0.0392150879,0.0665283203,-0.1743706597,0.0006618924,-0.0009765625
558336.2500235830,9.7891235355,-0.0372314453,0.0660705566,-0.1744357639,0.0006835937,-0.0017686632
558336.2600235830,9.7877502445,-0.0424194336,0.0633239746,-0.1744574653,0.0006076389,-0.0008355035
558336.2700235830,9.7894287113,-0.0323486328,0.0640869141,-0.1745008680,0.0006944444,-0.0018012153
558336.2800235830,9.7880554202,-0.0466918945,0.0666809082,-0.1744249132,0.0006510417,-0.0008897569
558336.2900235830,9.7906494144,-0.0309753418,0.0654602051,-0.1744574653,0.0007161458,-0.0016601562
558336.3000235830,9.7872924808,-0.0447082520,0.0646972656,-0.1744357639,0.0005967882,-0.0012044271
558336.3100235830,9.7885131839,-0.0341796875,0.0634765625,-0.1744032118,0.0006727431,-0.0012152778
558336.3200235830,9.7880554202,-0.0416564941,0.0657653809,-0.1744249132,0.0006727431,-0.0016276042
558336.3300235830,9.7883605960,-0.0389099121,0.0672912598,-0.1744357639,0.0006618924,-0.0009114583
558336.3400235830,9.7891235355,-0.0357055664,0.0646972656,-0.1744249132,0.0006618924,-0.0017686632
558336.3500235830,9.7880554202,-0.0437927246,0.0634765625,-0.1743706597,0.0006184896,-0.0008680556
558336.3600235831,9.7894287113,-0.0349426270,0.0654602051,-0.1743489583,0.0006835937,-0.0017361111
558336.3700235829,9.7877502445,-0.0440979004,0.0663757324,-0.1743489583,0.0006401910,-0.0009765625
558336.3800235830,9.7900390628,-0.0323486328,0.0654602051,-0.1744140625,0.0006727431,-0.0016059028
558336.3900235830,9.7871398929,-0.0447082520,0.0640869141,-0.1743598090,0.0006076389,-0.0011284722
558336.4000235830,9.7883605960,-0.0347900391,0.0636291504,-0.1743489583,0.0006618924,-0.0014214410
558336.4100235830,9.7880554202,-0.0430297852,0.0660705566,-0.1743706597,0.0006835937,-0.0014105903
558336.4200235830,9.7892761234,-0.0352478027,0.0657653809,-0.1744357639,0.0006293403,-0.0010850694
558336.4300235830,9.7891235355,-0.0396728516,0.0639343262,-0.1744249132,0.0006944444,-0.0016818576
558336.4400235830,9.7880554202,-0.0427246094,0.0637817383,-0.1743923611,0.0006076389,-0.0008355035
558336.4500235830,9.7892761234,-0.0341796875,0.0662231445,-0.1744791667,0.0006944444,-0.0018337674
558336.4600235830,9.7869873050,-0.0450134277,0.0662231445,-0.1744249132,0.0006618924,-0.0008572049
558336.4700235830,9.7901916507,-0.0311279297,0.0637817383,-0.1744466146,0.0006727431,-0.0017144097
558336.4800235830,9.7871398929,-0.0469970703,0.0643920898,-0.1744032118,0.0006618924,-0.0010850694
558336.4900235831,9.7883605960,-0.0338745117,0.0660705566,-0.1743706597,0.0006618924,-0.0013237847
558336.5000235830,9.7875976566,-0.0421142578,0.0669860840,-0.1743923611,0.0006510417,-0.0015625000
558336.5100235830,9.7888183597,-0.0382995605,0.0642395020,-0.1743272569,0.0006618924,-0.0008789062
558336.5200235830,9.7897338870,-0.0370788574,0.0637817383,-0.1743706597,0.0006727431,-0.0018446181
558336.5300235830,9.7868347171,-0.0450134277,0.0656127930,-0.1743598090,0.0006401910,-0.0008138021
558336.5400235830,9.7888183597,-0.0328063965,0.0666809082,-0.1743923611,0.0006618924,-0.0017795139
558336.5500235830,9.7879028324,-0.0456237793,0.0645446777,-0.1744032118,0.0006618924,-0.0009548611
558336.5600235830,9.7895812991,-0.0326538086,0.0636291504,-0.1744249132,0.0006835937,-0.0015733507
558336.5700235830,9.7882080081,-0.0451660156,0.0654602051,-0.1744357639,0.0006727431,-0.0012478299
558336.5800235830,9.7886657718,-0.0343322754,0.0666809082,-0.1744140625,0.0006293403,-0.0012152778
558336.5900235830,9.7882080081,-0.0408935547,0.0656127930,-0.1744249132,0.0006618924,-0.0016384549
558336.6000235840,9.7885131839,-0.0401306152,0.0634765625,-0.1744357639,0.0006510417,-0.0009006076
558336.6100235840,9.7885131839,-0.0361633301,0.0643920898,-0.1744140625,0.0006835937,-0.0018337674
558336.6200235840,9.7872924808,-0.0450134277,0.0668334961,-0.1743598090,0.0006401910,-0.0008572049
558336.6300235840,9.7889709476,-0.0326538086,0.0660705566,-0.1743706597,0.0006510417,-0.0017252604
558336.6400235840,9.7877502445,-0.0454711914,0.0634765625,-0.1743381076,0.0006727431,-0.0009874132
558336.6500235840,9.7901916507,-0.0326538086,0.0637817383,-0.1743923611,0.0007161458,-0.0015516493
558336.6600235840,9.7874450687,-0.0445556641,0.0665283203,-0.1743598090,0.0006510417,-0.0012478299
558336.6700235840,9.7882080081,-0.0347900391,0.0665283203,-0.1743598090,0.0006076389,-0.0012695312
558336.6800235840,9.7879028324,-0.0410461426,0.0643920898,-0.1743598090,0.0006510417,-0.0015733507
558336.6900235839,9.7886657718,-0.0396728516,0.0639343262,-0.1743706597,0.0006835937,-0.0009006076
558336.7000235840,9.7892761234,-0.0367736816,0.0654602051,-0.1744466146,0.0006835937,-0.0018120660
558336.7100235840,9.7882080081,-0.0444030762,0.0662231445,-0.1744466146,0.0006401910,-0.0008246528
558336.7200235840,9.7892761234,-0.0323486328,0.0648498535,-0.1744791667,0.0006618924,-0.0017686632
558336.7300235840,9.7886657718,-0.0465393066,0.0639343262,-0.1743706597,0.0006727431,-0.0009765625
558336.7400235840,9.7900390628,-0.0334167480,0.0654602051,-0.1744574653,0.0006510417,-0.0015842014
558336.7500235840,9.7886657718,-0.0442504883,0.0659179688,-0.1744140625,0.0006510417,-0.0012478299
558336.7600235840,9.7880554202,-0.0340270996,0.0651550293,-0.1744140625,0.0006401910,-0.0012369792
558336.7700235840,9.7883605960,-0.0411987305,0.0646972656,-0.1743923611,0.0006727431,-0.0015625000
558336.7800235840,9.7892761234,-0.0399780273,0.0645446777,-0.1743489583,0.0006618924,-0.0009548611
558336.7900235840,9.7894287113,-0.0369262695,0.0651550293,-0.1743598090,0.0006727431,-0.0018229167
558336.8000235840,9.7874450687,-0.0433349609,0.0653076172,-0.1743164062,0.0006184896,-0.0008572049
558336.8100235841,9.7892761234,-0.0325012207,0.0656127930,-0.1743923611,0.0006618924,-0.0017795139
558336.8200235839,9.7875976566,-0.0463867188,0.0648498535,-0.1743489583,0.0006510417,-0.0009440104
558336.8300235840,9.7895812991,-0.0323486328,0.0643920898,-0.1744032118,0.0006835937,-0.0016059028
558336.8400235840,9.7882080081,-0.0444030762,0.0645446777,-0.1744249132,0.0006510417,-0.0012261285
558336.8500235840,9.7886657718,-0.0343322754,0.0645446777,-0.1744032118,0.0006727431,-0.0012695312
558336.8600235840,9.7885131839,-0.0424194336,0.0651550293,-0.1744140625,0.0006510417,-0.0015625000
558336.8700235840,9.7891235355,-0.0395202637,0.0651550293,-0.1743489583,0.0006618924,-0.0009874132
558336.8800235840,9.7888183597,-0.0363159180,0.0650024414,-0.1744032118,0.0006618924,-0.0018012153
558336.8900235840,9.7882080081,-0.0422668457,0.0643920898,-0.1744032118,0.0006510417,-0.0007812500
558336.9000235840,9.7892761234,-0.0338745117,0.0659179688,-0.1744140625,0.0006727431,-0.0018446181
558336.9100235840,9.7879028324,-0.0473022461,0.0653076172,-0.1743489583,0.0006618924,-0.0009114583
558336.9200235840,9.7900390628,-0.0309753418,0.0639343262,-0.1744249132,0.0006727431,-0.0016059028
558336.9300235840,9.7886657718,-0.0445556641,0.0648498535,-0.1743706597,0.0006510417,-0.0012261285
558336.9400235839,9.7885131839,-0.0343322754,0.0660705566,-0.1743706597,0.0006293403,-0.0012586806
558336.9500235840,9.7882080081,-0.0419616699,0.0654602051,-0.1743381076,0.0006618924,-0.0015516493
558336.9600235840,9.7885131839,-0.0386047363,0.0636291504,-0.1743923611,0.0006618924,-0.0009223090
558336.9700235840,9.7895812991,-0.0361633301,0.0648498535,-0.1744791667,0.0007161458,-0.0018229167
558336.9800235840,9.7883605960,-0.0451660156,0.0660705566,-0.1744140625,0.0006076389,-0.0008246528
558336.9900235840,9.7894287113,-0.0328063965,0.0657653809,-0.1744357639,0.0006727431,-0.0018012153
558337.0000235840,9.7879028324,-0.0448608398,0.0639343262,-0.1743923611,0.0006618924,-0.0009982639
558337.0100235840,9.7897338870,-0.0332641602,0.0643920898,-0.1747395833,0.0006727431,-0.0014973958
558337.0200235840,9.7874450687,-0.0445556641,0.0653076172,-0.1744574653,0.0006401910,-0.0013129340
558337.0300235840,9.7883605960,-0.0357055664,0.0654602051,-0.1744249132,0.0006618924,-0.0012044271
558337.0400235840,9.7880554202,-0.0408935547,0.0656127930,-0.1744357639,0.0006618924,-0.0015733507
558337.0500235840,9.7891235355,-0.0398254395,0.0643920898,-0.1744249132,0.0006618924,-0.0009982639
558337.0600235841,9.7897338870,-0.0373840332,0.0645446777,-0.1744032118,0.0006835937,-0.0017795139
558337.0700235839,9.7880554202,-0.0431823730,0.0656127930,-0.1743381076,0.0006401910,-0.0008246528
558337.0800235840,9.7888183597,-0.0329589844,0.0657653809,-0.1743272569,0.0006510417,-0.0018337674
558337.0900235840,9.7874450687,-0.0451660156,0.0639343262,-0.1742838542,0.0006618924,-0.0008897569
558337.1000235840,9.7906494144,-0.0314331055,0.0645446777,-0.1743381076,0.0006835937,-0.0016276042
558337.1100235840,9.7875976566,-0.0468444824,0.0659179688,-0.1744466146,0.0006510417,-0.0011610243
558337.1200235840,9.7882080081,-0.0331115723,0.0654602051,-0.1744140625,0.0006510417,-0.0013454861
558337.1300235840,9.7879028324,-0.0415039063,0.0646972656,-0.1744140625,0.0006510417,-0.0015516493
558337.1400235840,9.7885131839,-0.0389099121,0.0636291504,-0.1744357639,0.0006401910,-0.0009114583
558337.1500235840,9.7895812991,-0.0376892090,0.0653076172,-0.1744249132,0.0006944444,-0.0018554687
558337.1600235840,9.7877502445,-0.0440979004,0.0653076172,-0.1744466146,0.0006184896,-0.0007703993
558337.1700235840,9.7889709476,-0.0305175781,0.0651550293,-0.1744249132,0.0006618924,-0.0018120660
558337.1800235840,9.7879028324,-0.0465393066,0.0646972656,-0.1744574653,0.0006510417,-0.0009765625
558337.1900235839,9.7892761234,-0.0341796875,0.0648498535,-0.1744032118,0.0006727431,-0.0014648437
558337.2000235840,9.7875976566,-0.0445556641,0.0657653809,-0.1743706597,0.0006510417,-0.0014214410
558337.2100235840,9.7883605960,-0.0349426270,0.0651550293,-0.1743272569,0.0006618924,-0.0010525174
558337.2200235840,9.7886657718,-0.0381469727,0.0654602051,-0.1743055555,0.0006618924,-0.0017252604
558337.2300235840,9.7889709476,-0.0442504883,0.0642395020,-0.1743489583,0.0006510417,-0.0008680556
558337.2400235840,9.7892761234,-0.0350952148,0.0646972656,-0.1744032118,0.0006727431,-0.0018012153
558337.2500235840,9.7880554202,-0.0439453125,0.0657653809,-0.1744357639,0.0006401910,-0.0009006076
558337.2600235840,9.7892761234,-0.0321960449,0.0654602051,-0.1744466146,0.0006727431,-0.0017252604
558337.2700235840,9.7879028324,-0.0465393066,0.0650024414,-0.1743923611,0.0006510417,-0.0010308160
558337.2800235840,9.7894287113,-0.0341796875,0.0645446777,-0.1744466146,0.0006727431,-0.0015407986
558337.2900235840,9.7879028324,-0.0447082520,0.0654602051,-0.1743923611,0.0006510417,-0.0013129340
558337.3000235840,9.7883605960,-0.0341796875,0.0653076172,-0.1744466146,0.0006510417,-0.0012044271
558337.3100235841,9.7877502445,-0.0399780273,0.0653076172,-0.1744574653,0.0006727431,-0.0015842014
558337.3200235839,9.7891235355,-0.0410461426,0.0650024414,-0.1743923611,0.0006618924,-0.0009874132
558337.3300235840,9.7895812991,-0.0369262695,0.0648498535,-0.1744357639,0.0006727431,-0.0018229167
558337.3400235840,9.7880554202,-0.0430297852,0.0657653809,-0.1743923611,0.0006510417,-0.0008246528
558337.3500235840,9.7875976566,-0.0331115723,0.0656127930,-0.1743706597,0.0006618924,-0.0018229167
558337.3600235840,9.7869873050,-0.0480651855,0.0642395020,-0.1743706597,0.0006510417,-0.0009657118
558337.3700235840,9.7901916507,-0.0323486328,0.0640869141,-0.1744032118,0.0006727431,-0.0015407986
558337.3800235840,9.7877502445,-0.0442504883,0.0654602051,-0.1743923611,0.0006510417,-0.0013346354
558337.3900235840,9.7888183597,-0.0366210938,0.0659179688,-0.1743706597,0.0006510417,-0.0011284722
558337.4000235840,9.7888183597,-0.0396728516,0.0645446777,-0.1744032118,0.0006727431,-0.0017361111
558337.4100235840,9.7883605960,-0.0416564941,0.0642395020,-0.1744032118,0.0006618924,-0.0008572049
558337.4200235840,9.7898864749,-0.0347900391,0.0643920898,-0.1744032118,0.0006727431,-0.0018229167
558337.4300235840,9.7869873050,-0.0450134277,0.0654602051,-0.1743923611,0.0006076389,-0.0008789062
558337.4400235839,9.7889709476,-0.0343322754,0.0654602051,-0.1744574653,0.0006727431,-0.0017469618
558337.4500235840,9.7880554202,-0.0450134277,0.0648498535,-0.1744466146,0.0006618924,-0.0009982639
558337.4600235840,9.7898864749,-0.0334167480,0.0637817383,-0.1744357639,0.0006727431,-0.0015625000
558337.4700235840,9.7885131839,-0.0457763672,0.0651550293,-0.1744140625,0.0006510417,-0.0012695312
558337.4800235840,9.7875976566,-0.0346374512,0.0657653809,-0.1743381076,0.0006293403,-0.0012695312
558337.4900235840,9.7882080081,-0.0411987305,0.0653076172,-0.1743055555,0.0006618924,-0.0015733507
558337.5000235840,9.7888183597,-0.0399780273,0.0643920898,-0.1742838542,0.0006510417,-0.0009223090
558337.5100235840,9.7900390628,-0.0382995605,0.0648498535,-0.1743706597,0.0007161458,-0.0018337674
558337.5200235840,9.7877502445,-0.0440979004,0.0645446777,-0.1744032118,0.0005967882,-0.0008572049
558337.5300235840,9.7883605960,-0.0328063965,0.0651550293,-0.1743598090,0.0006835937,-0.0017578125
558337.5400235840,9.7875976566,-0.0457763672,0.0646972656,-0.1743489583,0.0006293403,-0.0009765625
558337.5500235840,9.7892761234,-0.0337219238,0.0636291504,-0.1744140625,0.0006727431,-0.0015733507
558337.5600235841,9.7882080081,-0.0445556641,0.0650024414,-0.1744249132,0.0006510417,-0.0012261285
558337.5700235839,9.7879028324,-0.0344848633,0.0651550293,-0.1744249132,0.0006727431,-0.0012912326
558337.5800235840,9.7882080081,-0.0422668457,0.0657653809,-0.1744574653,0.0006510417,-0.0015082465
558337.5900235840,9.7891235355,-0.0395202637,0.0643920898,-0.1745117187,0.0006401910,-0.0010633681
558337.6000235840,9.7888183597,-0.0384521484,0.0643920898,-0.1744249132,0.0006618924,-0.0017252604
558337.6100235840,9.7872924808,-0.0422668457,0.0653076172,-0.1744140625,0.0006293403,-0.0008789062
558337.6200235840,9.7889709476,-0.0347900391,0.0653076172,-0.1743923611,0.0006618924,-0.0018337674
558337.6300235840,9.7886657718,-0.0471496582,0.0643920898,-0.1744032118,0.0006727431,-0.0008572049
558337.6400235840,9.7897338870,-0.0315856934,0.0637817383,-0.1744032118,0.0006727431,-0.0016818576
558337.6500235840,9.7879028324,-0.0468444824,0.0653076172,-0.1744249132,0.0006618924,-0.0012261285
558337.6600235840,9.7882080081,-0.0349426270,0.0654602051,-0.1744032118,0.0006076389,-0.0012261285
558337.6700235850,9.7886657718,-0.0413513184,0.0646972656,-0.1743598090,0.0006727431,-0.0016384549
558337.6800235850,9.7891235355,-0.0398254395,0.0637817383,-0.1743164062,0.0006510417,-0.0008897569
558337.6900235850,9.7891235355,-0.0360107422,0.0643920898,-0.1743598090,0.0006727431,-0.0018229167
558337.7000235850,9.7879028324,-0.0454711914,0.0656127930,-0.1743923611,0.0006401910,-0.0008572049
558337.7100235850,9.7892761234,-0.0328063965,0.0659179688,-0.1743706597,0.0006510417,-0.0017795139
558337.7200235850,9.7879028324,-0.0456237793,0.0645446777,-0.1744466146,0.0006618924,-0.0009765625
558337.7300235850,9.7898864749,-0.0334167480,0.0640869141,-0.1744791667,0.0006944444,-0.0015516493
558337.7400235850,9.7882080081,-0.0462341309,0.0656127930,-0.1744791667,0.0006293403,-0.0012586806
558337.7500235850,9.7885131839,-0.0357055664,0.0651550293,-0.1743598090,0.0006510417,-0.0012586806
558337.7600235851,9.7880554202,-0.0408935547,0.0646972656,-0.1743489583,0.0006401910,-0.0015516493
558337.7700235849,9.7885131839,-0.0392150879,0.0645446777,-0.1743489583,0.0006727431,-0.0009982639
558337.7800235850,9.7889709476,-0.0402832031,0.0646972656,-0.1743489583,0.0006727431,-0.0017686632
558337.7900235850,9.7879028324,-0.0428771973,0.0651550293,-0.1743272569,0.0006401910,-0.0009006076
558337.8000235850,9.7889709476,-0.0332641602,0.0646972656,-0.1743706597,0.0006510417,-0.0018446181
558337.8100235850,9.7877502445,-0.0462341309,0.0642395020,-0.1743598090,0.0006510417,-0.0008680556
558337.8200235850,9.7895812991,-0.0335693359,0.0646972656,-0.1743923611,0.0006944444,-0.0017252604
558337.8300235850,9.7875976566,-0.0465393066,0.0657653809,-0.1744900174,0.0006401910,-0.0011176215
558337.8400235850,9.7886657718,-0.0334167480,0.0650024414,-0.1744574653,0.0006618924,-0.0013671875
558337.8500235850,9.7885131839,-0.0430297852,0.0645446777,-0.1744357639,0.0006727431,-0.0015190972
558337.8600235850,9.7888183597,-0.0390625000,0.0646972656,-0.1744357639,0.0006293403,-0.0009657118
558337.8700235850,9.7889709476,-0.0379943848,0.0653076172,-0.1744249132,0.0006727431,-0.0018012153
558337.8800235851,9.7875976566,-0.0440979004,0.0648498535,-0.1743598090,0.0005967882,-0.0008246528
558337.8900235849,9.7889709476,-0.0335693359,0.0643920898,-0.1743055555,0.0006835937,-0.0018337674
558337.9000235850,9.7877502445,-0.0466918945,0.0643920898,-0.1743164062,0.0006510417,-0.0009440104
558337.9100235850,9.7894287113,-0.0328063965,0.0650024414,-0.1743489583,0.0006727431,-0.0015950521
558337.9200235850,9.7882080081,-0.0457763672,0.0657653809,-0.1743381076,0.0006401910,-0.0013129340
558337.9300235850,9.7885131839,-0.0350952148,0.0648498535,-0.1743055555,0.0006076389,-0.0012044271
558337.9400235850,9.7882080081,-0.0404357910,0.0642395020,-0.1743706597,0.0006727431,-0.0016384549
558337.9500235850,9.7886657718,-0.0416564941,0.0642395020,-0.1743923611,0.0006510417,-0.0009440104
558337.9600235850,9.7894287113,-0.0363159180,0.0651550293,-0.1744032118,0.0006727431,-0.0018120660
558337.9700235850,9.7879028324,-0.0437927246,0.0646972656,-0.1744574653,0.0006510417,-0.0008789062
558337.9800235850,9.7889709476,-0.0341796875,0.0646972656,-0.1744466146,0.0006510417,-0.0017361111
558337.9900235850,9.7869873050,-0.0471496582,0.0646972656,-0.1744249132,0.0006727431,-0.0010091146
558338.0000235850,9.7894287113,-0.0338745117,0.0656127930,-0.1744574653,0.0006510417,-0.0016059028
558338.0100235851,9.7875976566,-0.0450134277,0.0642395020,-0.1747070312,0.0006727431,-0.0011718750
558338.0200235849,9.7894287113,-0.0343322754,0.0642395020,-0.1744140625,0.0006293403,-0.0013346354
558338.0300235850,9.7885131839,-0.0445556641,0.0650024414,-0.1743923611,0.0006727431,-0.0014431424
558338.0400235850,9.7895812991,-0.0382995605,0.0659179688,-0.1744140625,0.0006510417,-0.0011176215
558338.0500235850,9.7886657718,-0.0392150879,0.0656127930,-0.1743489583,0.0006618924,-0.0016927083
558338.0600235850,9.7872924808,-0.0416564941,0.0642395020,-0.1743489583,0.0006184896,-0.0008789062
558338.0700235850,9.7889709476,-0.0357055664,0.0643920898,-0.1743706597,0.0006618924,-0.0018554687
558338.0800235850,9.7875976566,-0.0465393066,0.0651550293,-0.1743706597,0.0006510417,-0.0008680556
558338.0900235850,9.7903442386,-0.0317382813,0.0650024414,-0.1743706597,0.0006727431,-0.0017252604
558338.1000235850,9.7879028324,-0.0466918945,0.0643920898,-0.1744466146,0.0006401910,-0.0010959201
558338.1100235850,9.7886657718,-0.0340270996,0.0637817383,-0.1744249132,0.0006727431,-0.0013888889
558338.1200235850,9.7885131839,-0.0436401367,0.0656127930,-0.1745442708,0.0006727431,-0.0015190972
558338.1300235851,9.7891235355,-0.0386047363,0.0657653809,-0.1745117187,0.0006727431,-0.0009440104
558338.1400235849,9.7891235355,-0.0355529785,0.0648498535,-0.1744466146,0.0006401910,-0.0019097222
558338.1500235850,9.7871398929,-0.0471496582,0.0642395020,-0.1743489583,0.0006510417,-0.0007378472
558338.1600235850,9.7889709476,-0.0318908691,0.0645446777,-0.1743489583,0.0006618924,-0.0018120660
558338.1700235850,9.7872924808,-0.0469970703,0.0656127930,-0.1743164062,0.0006618924,-0.0010850694
558338.1800235850,9.7906494144,-0.0323486328,0.0646972656,-0.1743489583,0.0006618924,-0.0013997396
558338.1900235850,9.7877502445,-0.0439453125,0.0648498535,-0.1743381076,0.0006510417,-0.0014756944
558338.2000235850,9.7889709476,-0.0381469727,0.0640869141,-0.1743706597,0.0006401910,-0.0011176215
558338.2100235850,9.7888183597,-0.0387573242,0.0651550293,-0.1743598090,0.0006835937,-0.0016601562
558338.2200235850,9.7880554202,-0.0410461426,0.0650024414,-0.1743598090,0.0006401910,-0.0009223090
558338.2300235850,9.7892761234,-0.0364685059,0.0639343262,-0.1744249132,0.0006944444,-0.0017361111
558338.2400235850,9.7875976566,-0.0451660156,0.0636291504,-0.1743923611,0.0006076389,-0.0009223090
558338.2500235850,9.7888183597,-0.0340270996,0.0645446777,-0.1744249132,0.0006510417,-0.0017578125
558338.2600235851,9.7871398929,-0.0459289551,0.0648498535,-0.1743598090,0.0006618924,-0.0009657118
558338.2700235849,9.7898864749,-0.0320434570,0.0654602051,-0.1744249132,0.0006727431,-0.0016276042
558338.2800235850,9.7882080081,-0.0462341309,0.0653076172,-0.1744466146,0.0006401910,-0.0012369792
558338.2900235850,9.7886657718,-0.0344848633,0.0636291504,-0.1744466146,0.0006618924,-0.0012369792
558338.3000235850,9.7882080081,-0.0416564941,0.0653076172,-0.1744574653,0.0006510417,-0.0016276042
558338.3100235850,9.7877502445,-0.0408935547,0.0656127930,-0.1743923611,0.0006618924,-0.0009548611
558338.3200235850,9.7885131839,-0.0364685059,0.0642395020,-0.1743923611,0.0006727431,-0.0018337674
558338.3300235850,9.7871398929,-0.0450134277,0.0643920898,-0.1743598090,0.0006184896,-0.0008355035
558338.3400235850,9.7888183597,-0.0332641602,0.0648498535,-0.1743381076,0.0006618924,-0.0018012153
558338.3500235850,9.7874450687,-0.0473022461,0.0654602051,-0.1744140625,0.0006510417,-0.0009657118
558338.3600235850,9.7894287113,-0.0326538086,0.0640869141,-0.1744466146,0.0006618924,-0.0015625000
558338.3700235850,9.7885131839,-0.0444030762,0.0640869141,-0.1744357639,0.0006727431,-0.0013671875
558338.3800235851,9.7882080081,-0.0367736816,0.0650024414,-0.1744140625,0.0006401910,-0.0011501736
558338.3900235849,9.7888183597,-0.0419616699,0.0656127930,-0.1744140625,0.0006510417,-0.0016493056
558338.4000235850,9.7882080081,-0.0408935547,0.0643920898,-0.1743923611,0.0006293403,-0.0009440104
558338.4100235850,9.7889709476,-0.0363159180,0.0642395020,-0.1743706597,0.0006835937,-0.0018120660
558338.4200235850,9.7882080081,-0.0448608398,0.0650024414,-0.1744032118,0.0006076389,-0.0008355035
558338.4300235850,9.7888183597,-0.0335693359,0.0654602051,-0.1744791667,0.0006727431,-0.0018012153
558338.4400235850,9.7880554202,-0.0466918945,0.0645446777,-0.1744140625,0.0006401910,-0.0010091146
558338.4500235850,9.7897338870,-0.0337219238,0.0640869141,-0.1744140625,0.0006618924,-0.0015516493
558338.4600235850,9.7886657718,-0.0454711914,0.0645446777,-0.1743598090,0.0006510417,-0.0013237847
558338.4700235850,9.7880554202,-0.0361633301,0.0645446777,-0.1743381076,0.0006510417,-0.0012261285
558338.4800235850,9.7883605960,-0.0413513184,0.0654602051,-0.1743164062,0.0006727431,-0.0015950521
558338.4900235850,9.7886657718,-0.0410461426,0.0645446777,-0.1743598090,0.0006510417,-0.0009657118
558338.5000235850,9.7886657718,-0.0384521484,0.0636291504,-0.1744466146,0.0006618924,-0.0018012153
558338.5100235851,9.7872924808,-0.0444030762,0.0642395020,-0.1744357639,0.0006401910,-0.0008789062
558338.5200235849,9.7882080081,-0.0331115723,0.0651550293,-0.1744574653,0.0006618924,-0.0018229167
558338.5300235850,9.7877502445,-0.0466918945,0.0651550293,-0.1743598090,0.0006618924,-0.0009874132
558338.5400235850,9.7901916507,-0.0332641602,0.0637817383,-0.1744140625,0.0006618924,-0.0015082465
558338.5500235850,9.7883605960,-0.0450134277,0.0645446777,-0.1743706597,0.0006727431,-0.0013780382
558338.5600235850,9.7879028324,-0.0367736816,0.0650024414,-0.1744466146,0.0006293403,-0.0011176215
558338.5700235850,9.7879028324,-0.0404357910,0.0651550293,-0.1744466146,0.0006618924,-0.0016927083
558338.5800235850,9.7883605960,-0.0415039063,0.0640869141,-0.1744140625,0.0006401910,-0.0009223090
558338.5900235850,9.7891235355,-0.0381469727,0.0646972656,-0.1743923611,0.0006835937,-0.0018120660
558338.6000235850,9.7882080081,-0.0444030762,0.0643920898,-0.1743706597,0.0006293403,-0.0008789062
558338.6100235850,9.7889709476,-0.0332641602,0.0657653809,-0.1743923611,0.0006510417,-0.0018229167
558338.6200235850,9.7869873050,-0.0473022461,0.0648498535,-0.1743272569,0.0006293403,-0.0009657118
558338.6300235851,9.7892761234,-0.0331115723,0.0639343262,-0.1744140625,0.0006835937,-0.0015842014
558338.6400235849,9.7877502445,-0.0465393066,0.0640869141,-0.1744466146,0.0006510417,-0.0013020833
558338.6500235850,9.7883605960,-0.0355529785,0.0650024414,-0.1744466146,0.0006727431,-0.0012478299
558338.6600235850,9.7886657718,-0.0418090820,0.0651550293,-0.1744466146,0.0006510417,-0.0016384549
558338.6700235850,9.7879028324,-0.0398254395,0.0642395020,-0.1744249132,0.0006510417,-0.0009223090
558338.6800235850,9.7882080081,-0.0375366211,0.0636291504,-0.1744357639,0.0006727431,-0.0018337674
558338.6900235850,9.7877502445,-0.0456237793,0.0648498535,-0.1743923611,0.0006184896,-0.0008355035
558338.7000235850,9.7879028324,-0.0334167480,0.0659179688,-0.1744032118,0.0006618924,-0.0018120660
558338.7100235850,9.7877502445,-0.0466918945,0.0646972656,-0.1743923611,0.0006401910,-0.0009874132
558338.7200235850,9.7895812991,-0.0331115723,0.0637817383,-0.1743923611,0.0006727431,-0.0015950521
558338.7300235850,9.7880554202,-0.0479125977,0.0642395020,-0.1743489583,0.0006510417,-0.0012912326
558338.7400235860,9.7891235355,-0.0364685059,0.0653076172,-0.1743055555,0.0006293403,-0.0011827257
558338.7500235860,9.7885131839,-0.0402832031,0.0648498535,-0.1743055555,0.0006727431,-0.0016601562
558338.7600235860,9.7889709476,-0.0413513184,0.0642395020,-0.1743489583,0.0006510417,-0.0009114583
558338.7700235860,9.7889709476,-0.0372314453,0.0637817383,-0.1744032118,0.0006727431,-0.0018446181
558338.7800235860,9.7875976566,-0.0456237793,0.0645446777,-0.1743923611,0.0006076389,-0.0008897569
558338.7900235860,9.7888183597,-0.0329589844,0.0657653809,-0.1743706597,0.0006401910,-0.0018120660
558338.8000235860,9.7872924808,-0.0453186035,0.0642395020,-0.1743706597,0.0006401910,-0.0009765625
558338.8100235860,9.7897338870,-0.0343322754,0.0636291504,-0.1744140625,0.0006944444,-0.0015625000
558338.8200235860,9.7882080081,-0.0473022461,0.0650024414,-0.1743923611,0.0006510417,-0.0013020833
558338.8300235861,9.7886657718,-0.0357055664,0.0654602051,-0.1744466146,0.0006510417,-0.0012695312
558338.8400235859,9.7874450687,-0.0411987305,0.0646972656,-0.1744574653,0.0006618924,-0.0015733507
558338.8500235860,9.7885131839,-0.0399780273,0.0634765625,-0.1745008680,0.0006510417,-0.0009874132
558338.8600235860,9.7889709476,-0.0399780273,0.0639343262,-0.1744466146,0.0006727431,-0.0018012153
558338.8700235860,9.7875976566,-0.0448608398,0.0650024414,-0.1743923611,0.0006401910,-0.0008572049
558338.8800235860,9.7889709476,-0.0329589844,0.0654602051,-0.1743706597,0.0006618924,-0.0018229167
558338.8900235860,9.7883605960,-0.0463867188,0.0645446777,-0.1743272569,0.0006510417,-0.0009440104
558338.9000235860,9.7903442386,-0.0334167480,0.0642395020,-0.1743923611,0.0006510417,-0.0015950521
558338.9100235860,9.7877502445,-0.0468444824,0.0636291504,-0.1743923611,0.0006401910,-0.0013020833
558338.9200235860,9.7883605960,-0.0357055664,0.0642395020,-0.1744140625,0.0006293403,-0.0012261285
558338.9300235860,9.7880554202,-0.0410461426,0.0646972656,-0.1744249132,0.0006401910,-0.0016493056
558338.9400235860,9.7883605960,-0.0416564941,0.0640869141,-0.1744032118,0.0006293403,-0.0008897569
558338.9500235860,9.7894287113,-0.0373840332,0.0642395020,-0.1744249132,0.0006944444,-0.0018663194
558338.9600235861,9.7877502445,-0.0465393066,0.0646972656,-0.1743706597,0.0006076389,-0.0008246528
558338.9700235859,9.7891235355,-0.0321960449,0.0648498535,-0.1744466146,0.0006835937,-0.0018012153
558338.9800235860,9.7875976566,-0.0469970703,0.0646972656,-0.1743923611,0.0006293403,-0.0010525174
558338.9900235860,9.7897338870,-0.0337219238,0.0639343262,-0.1744791667,0.0006727431,-0.0015190972
558339.0000235860,9.7882080081,-0.0457763672,0.0640869141,-0.1744032118,0.0006401910,-0.0013237847
558339.0100235860,9.7883605960,-0.0372314453,0.0639343262,-0.1746853299,0.0006510417,-0.0012152778
558339.0200235860,9.7880554202,-0.0411987305,0.0646972656,-0.1743381076,0.0006618924,-0.0016384549
558339.0300235860,9.7885131839,-0.0411987305,0.0646972656,-0.1744032118,0.0006618924,-0.0009440104
558339.0400235860,9.7897338870,-0.0367736816,0.0643920898,-0.1744249132,0.0006835937,-0.0018880208
558339.0500235860,9.7885131839,-0.0451660156,0.0637817383,-0.1744249132,0.0006401910,-0.0008138021
558339.0600235860,9.7888183597,-0.0332641602,0.0646972656,-0.1744249132,0.0006618924,-0.0018120660
558339.0700235860,9.7866821292,-0.0471496582,0.0648498535,-0.1743381076,0.0006401910,-0.0010416667
558339.0800235861,9.7888183597,-0.0343322754,0.0643920898,-0.1743923611,0.0006401910,-0.0014539931
558339.0900235859,9.7883605960,-0.0442504883,0.0637817383,-0.1743923611,0.0006835937,-0.0014322917
558339.1000235860,9.7875976566,-0.0386047363,0.0639343262,-0.1743598090,0.0005967882,-0.0011393229
558339.1100235860,9.7883605960,-0.0398254395,0.0657653809,-0.1744140625,0.0006944444,-0.0017144097
558339.1200235860,9.7888183597,-0.0399780273,0.0643920898,-0.1744249132,0.0006401910,-0.0009223090
558339.1300235860,9.7898864749,-0.0375366211,0.0643920898,-0.1744574653,0.0006944444,-0.0018012153
558339.1400235860,9.7877502445,-0.0465393066,0.0642395020,-0.1744032118,0.0005967882,-0.0009006076
558339.1500235860,9.7872924808,-0.0347900391,0.0637817383,-0.1743489583,0.0006618924,-0.0018012153
558339.1600235860,9.7856140140,-0.0436401367,0.0646972656,-0.1743381076,0.0006510417,-0.0010091146
558339.1700235860,9.7906494144,-0.0340270996,0.0653076172,-0.1743706597,0.0006510417,-0.0015516493
558339.1800235860,9.7889709476,-0.0497436523,0.0651550293,-0.1743923611,0.0006510417,-0.0012695312
558339.1900235860,9.7875976566,-0.0341796875,0.0633239746,-0.1744140625,0.0006510417,-0.0013129340
558339.2000235860,9.7885131839,-0.0387573242,0.0645446777,-0.1743923611,0.0006618924,-0.0015516493
558339.2100235861,9.7886657718,-0.0407409668,0.0653076172,-0.1743489583,0.0006618924,-0.0009440104
558339.2200235859,9.7891235355,-0.0396728516,0.0643920898,-0.1743706597,0.0006510417,-0.0018446181
558339.2300235860,9.7886657718,-0.0444030762,0.0634765625,-0.1743923611,0.0006510417,-0.0008246528
558339.2400235860,9.7885131839,-0.0314331055,0.0636291504,-0.1744249132,0.0006510417,-0.0018554687
558339.2500235860,9.7854614261,-0.0479125977,0.0650024414,-0.1744249132,0.0006510417,-0.0009765625
558339.2600235860,9.7889709476,-0.0357055664,0.0657653809,-0.1744140625,0.0006510417,-0.0015625000
558339.2700235860,9.7885131839,-0.0456237793,0.0630187988,-0.1744032118,0.0006401910,-0.0013563368
558339.2800235860,9.7894287113,-0.0352478027,0.0639343262,-0.1743706597,0.0006618924,-0.0011284722
558339.2900235860,9.7888183597,-0.0419616699,0.0657653809,-0.1744140625,0.0006727431,-0.0016601562
558339.3000235860,9.7885131839,-0.0421142578,0.0650024414,-0.1744032118,0.0006293403,-0.0009874132
558339.3100235860,9.7882080081,-0.0366210938,0.0646972656,-0.1744249132,0.0006835937,-0.0018229167
558339.3200235860,9.7885131839,-0.0444030762,0.0630187988,-0.1743598090,0.0005967882,-0.0008897569
558339.3300235861,9.7889709476,-0.0341796875,0.0640869141,-0.1743272569,0.0006727431,-0.0017795139
558339.3400235859,9.7882080081,-0.0463867188,0.0648498535,-0.1743598090,0.0006510417,-0.0009657118
558339.3500235860,9.7891235355,-0.0335693359,0.0643920898,-0.1743598090,0.0006618924,-0.0016384549
558339.3600235860,9.7879028324,-0.0460815430,0.0639343262,-0.1744140625,0.0006401910,-0.0012261285
558339.3700235860,9.7883605960,-0.0349426270,0.0633239746,-0.1744032118,0.0006510417,-0.0013020833
558339.3800235860,9.7891235355,-0.0434875488,0.0653076172,-0.1744357639,0.0006727431,-0.0015842014
558339.3900235860,9.7900390628,-0.0392150879,0.0662231445,-0.1744249132,0.0006401910,-0.0010091146
558339.4000235860,9.7894287113,-0.0382995605,0.0640869141,-0.1744574653,0.0006618924,-0.0018012153
558339.4100235860,9.7880554202,-0.0434875488,0.0639343262,-0.1744140625,0.0006184896,-0.0008246528
558339.4200235860,9.7885131839,-0.0350952148,0.0645446777,-0.1743923611,0.0006510417,-0.0018663194
558339.4300235860,9.7880554202,-0.0473022461,0.0654602051,-0.1743164062,0.0006510417,-0.0009548611
558339.4400235860,9.7892761234,-0.0325012207,0.0648498535,-0.1743598090,0.0006618924,-0.0016384549
558339.4500235860,9.7880554202,-0.0465393066,0.0639343262,-0.1743489583,0.0006401910,-0.0012586806
558339.4600235861,9.7879028324,-0.0358581543,0.0634765625,-0.1743164062,0.0006401910,-0.0012695312
558339.4700235859,9.7875976566,-0.0419616699,0.0637817383,-0.1743598090,0.0006401910,-0.0016384549
558339.4800235860,9.7883605960,-0.0405883789,0.0646972656,-0.1743381076,0.0006510417,-0.0009006076
558339.4900235860,9.7892761234,-0.0360107422,0.0640869141,-0.1744357639,0.0006618924,-0.0018554687
558339.5000235860,9.7882080081,-0.0471496582,0.0633239746,-0.1743598090,0.0006401910,-0.0008680556
558339.5100235860,9.7894287113,-0.0331115723,0.0642395020,-0.1744791667,0.0006727431,-0.0017686632
558339.5200235860,9.7875976566,-0.0466918945,0.0648498535,-0.1744249132,0.0006401910,-0.0010742187
558339.5300235860,9.7883605960,-0.0340270996,0.0648498535,-0.1744466146,0.0006401910,-0.0014865451
558339.5400235860,9.7885131839,-0.0459289551,0.0637817383,-0.1744574653,0.0006618924,-0.0013671875
558339.5500235860,9.7885131839,-0.0373840332,0.0633239746,-0.1744900174,0.0006293403,-0.0012044271
558339.5600235860,9.7883605960,-0.0424194336,0.0640869141,-0.1744574653,0.0006618924,-0.0017144097
558339.5700235860,9.7879028324,-0.0410461426,0.0645446777,-0.1743598090,0.0006510417,-0.0009006076
558339.5800235861,9.7894287113,-0.0361633301,0.0648498535,-0.1743598090,0.0006510417,-0.0018446181
558339.5900235859,9.7872924808,-0.0471496582,0.0639343262,-0.1743489583,0.0006184896,-0.0008355035
558339.6000235860,9.7886657718,-0.0352478027,0.0637817383,-0.1743598090,0.0006510417,-0.0018337674
558339.6100235860,9.7877502445,-0.0465393066,0.0643920898,-0.1743598090,0.0006401910,-0.0010091146
558339.6200235860,9.7894287113,-0.0331115723,0.0653076172,-0.1744032118,0.0006727431,-0.0015625000
558339.6300235860,9.7880554202,-0.0468444824,0.0642395020,-0.1744357639,0.0006510417,-0.0012912326
558339.6400235860,9.7888183597,-0.0357055664,0.0634765625,-0.1744357639,0.0006401910,-0.0012695312
558339.6500235860,9.7885131839,-0.0425720215,0.0639343262,-0.1744574653,0.0006727431,-0.0016384549
558339.6600235860,9.7888183597,-0.0404357910,0.0653076172,-0.1744140625,0.0006293403,-0.0009765625
558339.6700235860,9.7886657718,-0.0373840332,0.0648498535,-0.1744357639,0.0006618924,-0.0018120660
558339.6800235860,9.7882080081,-0.0454711914,0.0636291504,-0.1743923611,0.0006184896,-0.0008355035
558339.6900235860,9.7888183597,-0.0343322754,0.0643920898,-0.1743923611,0.0006727431,-0.0018554687
558339.7000235860,9.7879028324,-0.0480651855,0.0645446777,-0.1744140625,0.0006401910,-0.0010091146
558339.7100235861,9.7889709476,-0.0335693359,0.0646972656,-0.1743489583,0.0006727431,-0.0015733507
558339.7200235859,9.7883605960,-0.0456237793,0.0633239746,-0.1743706597,0.0006401910,-0.0013454861
558339.7300235860,9.7883605960,-0.0364685059,0.0637817383,-0.1743923611,0.0006510417,-0.0011393229
558339.7400235860,9.7883605960,-0.0411987305,0.0656127930,-0.1744032118,0.0006510417,-0.0017469618
558339.7500235860,9.7886657718,-0.0437927246,0.0639343262,-0.1744032118,0.0006618924,-0.0008680556
558339.7600235860,9.7897338870,-0.0344848633,0.0631713867,-0.1744466146,0.0006618924,-0.0018988715
558339.7700235860,9.7875976566,-0.0469970703,0.0628662109,-0.1744140625,0.0006401910,-0.0008897569
558339.7800235860,9.7892761234,-0.0338745117,0.0650024414,-0.1744140625,0.0006401910,-0.0017252604
558339.7900235860,9.7868347171,-0.0473022461,0.0650024414,-0.1743706597,0.0006510417,-0.0011176215
558339.8000235860,9.7898864749,-0.0340270996,0.0633239746,-0.1743923611,0.0006510417,-0.0014648437
558339.8100235860,9.7882080081,-0.0444030762,0.0630187988,-0.1744140625,0.0006618924,-0.0013888889
558339.8200235870,9.7886657718,-0.0373840332,0.0643920898,-0.1744357639,0.0006401910,-0.0012044271
558339.8300235870,9.7885131839,-0.0425720215,0.0656127930,-0.1744249132,0.0006510417,-0.0016710069
558339.8400235870,9.7883605960,-0.0411987305,0.0637817383,-0.1744032118,0.0006401910,-0.0009765625
558339.8500235870,9.7891235355,-0.0372314453,0.0624084473,-0.1744032118,0.0006618924,-0.0018012153
558339.8600235870,9.7879028324,-0.0454711914,0.0639343262,-0.1743055555,0.0006401910,-0.0009006076
558339.8700235870,9.7889709476,-0.0349426270,0.0657653809,-0.1743598090,0.0006618924,-0.0017686632
558339.8800235870,9.7877502445,-0.0486755371,0.0642395020,-0.1743598090,0.0006293403,-0.0010308160
558339.8900235870,9.7895812991,-0.0328063965,0.0624084473,-0.1744140625,0.0006944444,-0.0015842014
558339.9000235870,9.7879028324,-0.0462341309,0.0633239746,-0.1744357639,0.0006401910,-0.0012586806
558339.9100235871,9.7889709476,-0.0363159180,0.0651550293,-0.1744357639,0.0006835937,-0.0013346354
558339.9200235870,9.7886657718,-0.0434875488,0.0651550293,-0.1744140625,0.0006401910,-0.0015190972
558339.9300235870,9.7889709476,-0.0390625000,0.0622558594,-0.1744140625,0.0006510417,-0.0010525174
558339.9400235870,9.7886657718,-0.0387573242,0.0627136230,-0.1744466146,0.0006727431,-0.0018337674
558339.9500235870,9.7879028324,-0.0451660156,0.0650024414,-0.1744032118,0.0006510417,-0.0008138021
558339.9600235870,9.7877502445,-0.0338745117,0.0656127930,-0.1744032118,0.0006076389,-0.0018880208
558339.9700235870,9.7880554202,-0.0477600098,0.0637817383,-0.1744032118,0.0006618924,-0.0009765625
558339.9800235870,9.7906494144,-0.0346374512,0.0628662109,-0.1743923611,0.0006727431,-0.0015842014
558339.9900235870,9.7883605960,-0.0460815430,0.0646972656,-0.1743489583,0.0006727431,-0.0012912326
558340.0000235870,9.7895812991,-0.0354003906,0.0654602051,-0.1742730035,0.0006293403,-0.0012478299
558340.0100235870,9.7880554202,-0.0437927246,0.0642395020,-0.1746093750,0.0006401910,-0.0015842014
558340.0200235870,9.7888183597,-0.0399780273,0.0614929199,-0.1743598090,0.0006618924,-0.0010633681
558340.0300235871,9.7891235355,-0.0373840332,0.0631713867,-0.1745985243,0.0006618924,-0.0017795139
558340.0400235869,9.7874450687,-0.0442504883,0.0650024414,-0.1745225694,0.0006293403,-0.0008897569
558340.0500235870,9.7885131839,-0.0354003906,0.0650024414,-0.1744466146,0.0006401910,-0.0018663194
558340.0600235870,9.7868347171,-0.0476074219,0.0628662109,-0.1743598090,0.0006076389,-0.0009223090
558340.0700235870,9.7903442386,-0.0320434570,0.0628662109,-0.1743381076,0.0007269965,-0.0016384549
558340.0800235870,9.7885131839,-0.0469970703,0.0646972656,-0.1743381076,0.0006401910,-0.0012478299
558340.0900235870,9.7889709476,-0.0373840332,0.0657653809,-0.1743598090,0.0006401910,-0.0012586806
558340.1000235870,9.7882080081,-0.0419616699,0.0636291504,-0.1744466146,0.0006618924,-0.0016601562
558340.1100235870,9.7886657718,-0.0396728516,0.0617980957,-0.1744357639,0.0006510417,-0.0009657118
558340.1200235870,9.7882080081,-0.0381469727,0.0648498535,-0.1744791667,0.0006401910,-0.0017795139
558340.1300235870,9.7874450687,-0.0457763672,0.0657653809,-0.1743923611,0.0006510417,-0.0009006076
558340.1400235870,9.7883605960,-0.0358581543,0.0648498535,-0.1744032118,0.0006076389,-0.0018120660
558340.1500235870,9.7877502445,-0.0459289551,0.0624084473,-0.1743706597,0.0006618924,-0.0009765625
558340.1600235871,9.7894287113,-0.0332641602,0.0631713867,-0.1743923611,0.0006944444,-0.0016601562
558340.1700235870,9.7877502445,-0.0479125977,0.0650024414,-0.1744140625,0.0006510417,-0.0012044271
558340.1800235870,9.7886657718,-0.0355529785,0.0654602051,-0.1744140625,0.0006510417,-0.0013563368
558340.1900235870,9.7886657718,-0.0437927246,0.0640869141,-0.1743598090,0.0006618924,-0.0015733507
558340.2000235870,9.7885131839,-0.0396728516,0.0627136230,-0.1744032118,0.0006510417,-0.0009765625
558340.2100235870,9.7895812991,-0.0382995605,0.0646972656,-0.1744249132,0.0006835937,-0.0018337674
558340.2200235870,9.7877502445,-0.0454711914,0.0651550293,-0.1743598090,0.0006076389,-0.0008355035
558340.2300235870,9.7892761234,-0.0341796875,0.0639343262,-0.1743923611,0.0006618924,-0.0018663194
558340.2400235870,9.7882080081,-0.0465393066,0.0619506836,-0.1743598090,0.0006727431,-0.0009982639
558340.2500235870,9.7898864749,-0.0331115723,0.0639343262,-0.1743706597,0.0006510417,-0.0015733507
558340.2600235870,9.7880554202,-0.0469970703,0.0653076172,-0.1743923611,0.0006510417,-0.0013020833
558340.2700235870,9.7877502445,-0.0364685059,0.0640869141,-0.1743598090,0.0006076389,-0.0012586806
558340.2800235871,9.7872924808,-0.0419616699,0.0624084473,-0.1744140625,0.0006076389,-0.0016384549
558340.2900235869,9.7891235355,-0.0407409668,0.0637817383,-0.1744032118,0.0006510417,-0.0009548611
558340.3000235870,9.7895812991,-0.0393676758,0.0657653809,-0.1744140625,0.0007378472,-0.0018446181
558340.3100235870,9.7880554202,-0.0445556641,0.0636291504,-0.1744032118,0.0005967882,-0.0009006076
558340.3200235870,9.7886657718,-0.0331115723,0.0625610352,-0.1744032118,0.0006510417,-0.0018229167
558340.3300235870,9.7877502445,-0.0473022461,0.0633239746,-0.1743706597,0.0006727431,-0.0009657118
558340.3400235870,9.7898864749,-0.0344848633,0.0645446777,-0.1744032118,0.0006510417,-0.0015950521
558340.3500235870,9.7875976566,-0.0474548340,0.0642395020,-0.1743923611,0.0006076389,-0.0012912326
558340.3600235870,9.7886657718,-0.0350952148,0.0634765625,-0.1744249132,0.0006293403,-0.0013129340
558340.3700235870,9.7883605960,-0.0430297852,0.0643920898,-0.1744140625,0.0007161458,-0.0015842014
558340.3800235870,9.7894287113,-0.0415039063,0.0639343262,-0.1744466146,0.0006835937,-0.0009657118
558340.3900235870,9.7886657718,-0.0381469727,0.0643920898,-0.1744140625,0.0005859375,-0.0018663194
558340.4000235870,9.7877502445,-0.0445556641,0.0639343262,-0.1743923611,0.0006076389,-0.0008355035
558340.4100235871,9.7886657718,-0.0329589844,0.0637817383,-0.1743489583,0.0006944444,-0.0018012153
558340.4200235870,9.7882080081,-0.0479125977,0.0639343262,-0.1743381076,0.0006835937,-0.0010091146
558340.4300235870,9.7897338870,-0.0363159180,0.0646972656,-0.1743489583,0.0006401910,-0.0015733507
558340.4400235870,9.7869873050,-0.0445556641,0.0640869141,-0.1743598090,0.0005533854,-0.0013888889
558340.4500235870,9.7891235355,-0.0367736816,0.0628662109,-0.1743706597,0.0006944444,-0.0011718750
558340.4600235870,9.7889709476,-0.0408935547,0.0636291504,-0.1744574653,0.0007486979,-0.0017252604
558340.4700235870,9.7891235355,-0.0424194336,0.0639343262,-0.1744140625,0.0006401910,-0.0008897569
558340.4800235870,9.7883605960,-0.0367736816,0.0637817383,-0.1744466146,0.0005859375,-0.0018663194
558340.4900235870,9.7875976566,-0.0463867188,0.0633239746,-0.1743923611,0.0006401910,-0.0008897569
558340.5000235870,9.7891235355,-0.0335693359,0.0637817383,-0.1744574653,0.0006944444,-0.0017795139
558340.5100235870,9.7882080081,-0.0474548340,0.0645446777,-0.1744357639,0.0006835937,-0.0010742187
558340.5200235870,9.7892761234,-0.0352478027,0.0648498535,-0.1744140625,0.0006618924,-0.0014648437
558340.5300235871,9.7883605960,-0.0454711914,0.0628662109,-0.1744249132,0.0006293403,-0.0014539931
558340.5400235869,9.7880554202,-0.0382995605,0.0625610352,-0.1743706597,0.0005967882,-0.0011393229
558340.5500235870,9.7888183597,-0.0395202637,0.0646972656,-0.1743598090,0.0006618924,-0.0016927083
558340.5600235870,9.7886657718,-0.0419616699,0.0656127930,-0.1743381076,0.0006510417,-0.0009548611
558340.5700235870,9.7892761234,-0.0384521484,0.0637817383,-0.1743598090,0.0006835937,-0.0018229167
558340.5800235870,9.7885131839,-0.0463867188,0.0628662109,-0.1743598090,0.0005967882,-0.0009114583
558340.5900235870,9.7889709476,-0.0338745117,0.0634765625,-0.1743489583,0.0006401910,-0.0018120660
558340.6000235870,9.7871398929,-0.0459289551,0.0650024414,-0.1743381076,0.0006727431,-0.0009874132
558340.6100235870,9.7898864749,-0.0352478027,0.0648498535,-0.1743923611,0.0006835937,-0.0015733507
558340.6200235870,9.7880554202,-0.0471496582,0.0630187988,-0.1743923611,0.0006293403,-0.0013563368
558340.6300235870,9.7882080081,-0.0358581543,0.0617980957,-0.1744466146,0.0005967882,-0.0012369792
558340.6400235870,9.7882080081,-0.0419616699,0.0634765625,-0.1744466146,0.0006618924,-0.0016710069
558340.6500235870,9.7880554202,-0.0418090820,0.0654602051,-0.1744140625,0.0006510417,-0.0009548611
558340.6600235871,9.7889709476,-0.0381469727,0.0646972656,-0.1743923611,0.0007161458,-0.0018337674
558340.6700235870,9.7875976566,-0.0453186035,0.0622558594,-0.1743598090,0.0006076389,-0.0008680556
558340.6800235870,9.7885131839,-0.0347900391,0.0633239746,-0.1743706597,0.0006293403,-0.0018120660
558340.6900235870,9.7872924808,-0.0476074219,0.0642395020,-0.1743272569,0.0006510417,-0.0010091146
558340.7000235870,9.7897338870,-0.0344848633,0.0648498535,-0.1743923611,0.0006510417,-0.0016276042
558340.7100235870,9.7879028324,-0.0466918945,0.0637817383,-0.1743489583,0.0006401910,-0.0012369792
558340.7200235870,9.7879028324,-0.0357055664,0.0627136230,-0.1743381076,0.0006401910,-0.0013346354
558340.7300235870,9.7877502445,-0.0436401367,0.0631713867,-0.1743381076,0.0006618924,-0.0015950521
558340.7400235870,9.7883605960,-0.0395202637,0.0650024414,-0.1743272569,0.0006401910,-0.0009657118
558340.7500235870,9.7892761234,-0.0390625000,0.0642395020,-0.1744140625,0.0006835937,-0.0018988715
558340.7600235870,9.7875976566,-0.0463867188,0.0624084473,-0.1744032118,0.0006510417,-0.0008355035
558340.7700235870,9.7892761234,-0.0326538086,0.0628662109,-0.1744574653,0.0006727431,-0.0018337674
558340.7800235871,9.7872924808,-0.0477600098,0.0643920898,-0.1743706597,0.0005859375,-0.0010416667
558340.7900235869,9.7892761234,-0.0354003906,0.0650024414,-0.1744357639,0.0006618924,-0.0015516493
558340.8000235870,9.7882080081,-0.0465393066,0.0631713867,-0.1744791667,0.0006618924,-0.0013780382
558340.8100235870,9.7885131839,-0.0360107422,0.0631713867,-0.1745876736,0.0006944444,-0.0012261285
558340.8200235870,9.7882080081,-0.0424194336,0.0643920898,-0.1745442708,0.0006401910,-0.0016601562
558340.8300235870,9.7883605960,-0.0416564941,0.0645446777,-0.1744357639,0.0005967882,-0.0009548611
558340.8400235870,9.7892761234,-0.0378417969,0.0636291504,-0.1743923611,0.0006727431,-0.0019097222
558340.8500235870,9.7871398929,-0.0468444824,0.0627136230,-0.1743381076,0.0006510417,-0.0008355035
558340.8600235870,9.7892761234,-0.0337219238,0.0636291504,-0.1743164062,0.0006944444,-0.0018120660
558340.8700235870,9.7875976566,-0.0482177734,0.0637817383,-0.1743489583,0.0006076389,-0.0010525174
558340.8800235870,9.7892761234,-0.0338745117,0.0645446777,-0.1743706597,0.0006293403,-0.0015190972
558340.8900235880,9.7885131839,-0.0459289551,0.0630187988,-0.1744357639,0.0006618924,-0.0014322917
558340.9000235880,9.7883605960,-0.0378417969,0.0625610352,-0.1744249132,0.0006944444,-0.0011501736
558340.9100235880,9.7889709476,-0.0407409668,0.0646972656,-0.1744466146,0.0006835937,-0.0016710069
558340.9200235880,9.7886657718,-0.0425720215,0.0646972656,-0.1744032118,0.0005750868,-0.0009982639
558340.9300235880,9.7892761234,-0.0390625000,0.0640869141,-0.1743706597,0.0006401910,-0.0017795139
558340.9400235880,9.7880554202,-0.0440979004,0.0614929199,-0.1743923611,0.0006727431,-0.0009765625
558340.9500235880,9.7888183597,-0.0352478027,0.0640869141,-0.1743272569,0.0006727431,-0.0017686632
558340.9600235880,9.7871398929,-0.0483703613,0.0645446777,-0.1743381076,0.0006076389,-0.0010308160
558340.9700235880,9.7900390628,-0.0343322754,0.0640869141,-0.1743923611,0.0006944444,-0.0016601562
558340.9800235881,9.7875976566,-0.0460815430,0.0619506836,-0.1743706597,0.0005967882,-0.0012478299
558340.9900235879,9.7885131839,-0.0370788574,0.0639343262,-0.1743706597,0.0006510417,-0.0012912326
558341.0000235880,9.7883605960,-0.0436401367,0.0653076172,-0.1743598090,0.0006510417,-0.0016276042
558341.0100235880,9.7885131839,-0.0389099121,0.0630187988,-0.1746527778,0.0006293403,-0.0010308160
558341.0200235880,9.7894287113,-0.0384521484,0.0624084473,-0.1744140625,0.0006727431,-0.0018229167
558341.0300235880,9.7882080081,-0.0457763672,0.0633239746,-0.1744140625,0.0006510417,-0.0008680556
558341.0400235880,9.7882080081,-0.0357055664,0.0650024414,-0.1744900174,0.0006401910,-0.0018880208
558341.0500235880,9.7874450687,-0.0462341309,0.0637817383,-0.1744791667,0.0006401910,-0.0009548611
558341.0600235880,9.7892761234,-0.0326538086,0.0627136230,-0.1744574653,0.0006618924,-0.0016710069
558341.0700235880,9.7877502445,-0.0483703613,0.0633239746,-0.1744466146,0.0006618924,-0.0011393229
558341.0800235880,9.7892761234,-0.0370788574,0.0648498535,-0.1744140625,0.0006835937,-0.0014648437
558341.0900235880,9.7880554202,-0.0442504883,0.0646972656,-0.1744249132,0.0006076389,-0.0014756944
558341.1000235880,9.7892761234,-0.0369262695,0.0625610352,-0.1744249132,0.0006618924,-0.0011393229
558341.1100235879,9.7882080081,-0.0416564941,0.0624084473,-0.1743598090,0.0006727431,-0.0016927083
