t(s),acc_x,acc_y,acc_z,gyro_x,gyro_y,gyro_z
557661.0000229540,0.0276184082,9.8004150394,-0.0077819824,-0.0008029514,0.0000434028,-0.0000108507
557661.0100229540,0.0276184082,9.7950744632,-0.0334167480,0.0001085069,0.0000217014,0.0000000000
557661.0200229540,0.0289916992,9.7984313968,-0.0167846680,0.0004340278,0.0000108507,0.0000000000
557661.0300229540,0.0271606445,9.7990417484,-0.0173950195,-0.0010633681,0.0000651042,-0.0000108507
557661.0400229540,0.0276184082,9.7959899906,-0.0315856934,0.0008463542,-0.0000000000,0.0000108507
557661.0500229540,0.0274658203,9.8005676273,-0.0086975098,-0.0003906250,0.0000325521,0.0000000000
557661.0600229540,0.0282287598,9.7973632816,-0.0300598145,-0.0004123264,0.0000434028,0.0000000000
557661.0700229540,0.0283813477,9.7972106937,-0.0224304199,0.0008246528,0.0000108507,0.0000000000
557661.0800229540,0.0280761719,9.7999572757,-0.0111389160,-0.0010091146,0.0000651042,-0.0000108507
557661.0900229540,0.0273132324,9.7955322269,-0.0350952148,0.0005208333,0.0000325521,0.0000000000
557661.1000229541,0.0276184082,9.7998046878,-0.0117492676,0.0000108507,0.0000217014,0.0000108507
557661.1100229539,0.0292968750,9.7979736331,-0.0221252441,-0.0008355035,0.0000434028,0.0000108507
557661.1200229540,0.0277709961,9.7969055179,-0.0283813477,0.0009765625,-0.0000000000,0.0000000000
557661.1300229540,0.0259399414,9.8002624515,-0.0094604492,-0.0007921007,0.0000434028,0.0000000000
557661.1400229540,0.0280761719,9.7961425784,-0.0323486328,0.0000325521,0.0000434028,0.0000108507
557661.1500229540,0.0285339355,9.7979736331,-0.0173950195,0.0005533854,0.0000217014,-0.0000108507
557661.1600229540,0.0271606445,9.7994995120,-0.0149536133,-0.0010850694,0.0000434028,-0.0000108507
557661.1700229540,0.0260925293,9.7952270511,-0.0338745117,0.0007595486,0.0000108507,0.0000108507
557661.1800229540,0.0292968750,9.7999572757,-0.0085449219,-0.0002929687,0.0000217014,0.0000000000
557661.1900229540,0.0292968750,9.7972106937,-0.0259399414,-0.0004991319,0.0000434028,0.0000000000
557661.2000229540,0.0273132324,9.7969055179,-0.0241088867,0.0008246528,0.0000108507,0.0000000000
557661.2100229550,0.0270080566,9.8002624515,-0.0119018555,-0.0009548611,0.0000325521,0.0000000000
557661.2200229550,0.0288391113,9.7950744632,-0.0346374512,0.0004014757,0.0000434028,0.0000000000
557661.2300229550,0.0289916992,9.7999572757,-0.0106811523,0.0000651042,0.0000108507,0.0000000000
557661.2400229550,0.0267028809,9.7976684574,-0.0225830078,-0.0008138021,0.0000325521,0.0000000000
557661.2500229550,0.0270080566,9.7966003421,-0.0288391113,0.0009223090,0.0000108507,0.0000108507
557661.2600229550,0.0277709961,9.8005676273,-0.0090026855,-0.0007703993,0.0000434028,0.0000108507
557661.2700229550,0.0292968750,9.7961425784,-0.0329589844,0.0000651042,0.0000325521,0.0000000000
557661.2800229550,0.0283813477,9.7987365726,-0.0167846680,0.0005208333,0.0000217014,0.0000000000
557661.2900229550,0.0265502930,9.7994995120,-0.0158691406,-0.0010850694,0.0000325521,-0.0000217014
557661.3000229551,0.0276184082,9.7950744632,-0.0335693359,0.0008138021,0.0000217014,0.0000108507
557661.3100229549,0.0288391113,9.8002624515,-0.0080871582,-0.0003255208,0.0000325521,0.0000000000
557661.3200229550,0.0289916992,9.7967529300,-0.0276184082,-0.0005533854,0.0000325521,-0.0000108507
557661.3300229550,0.0267028809,9.7972106937,-0.0254821777,0.0009006076,0.0000217014,0.0000000000
557661.3400229550,0.0273132324,9.8001098636,-0.0106811523,-0.0009874132,0.0000434028,0.0000108507
557661.3500229550,0.0294494629,9.7955322269,-0.0332641602,0.0003689236,0.0000325521,0.0000000000
557661.3600229550,0.0291442871,9.7993469241,-0.0129699707,0.0001953125,0.0000325521,-0.0000108507
557661.3700229550,0.0263977051,9.7979736331,-0.0207519531,-0.0008897569,0.0000325521,0.0000108507
557661.3800229550,0.0273132324,9.7958374027,-0.0303649902,0.0008463542,0.0000217014,0.0000108507
557661.3900229550,0.0294494629,9.8005676273,-0.0077819824,-0.0006510417,0.0000217014,0.0000108507
557661.4000229550,0.0289916992,9.7962951663,-0.0320434570,-0.0000759549,0.0000434028,-0.0000217014
557661.4100229550,0.0267028809,9.7981262210,-0.0196838379,0.0006618924,0.0000108507,0.0000000000
557661.4200229550,0.0263977051,9.7993469241,-0.0131225586,-0.0011067708,0.0000651042,0.0000000000
557661.4300229551,0.0286865234,9.7953796390,-0.0331115723,0.0007161458,0.0000108507,0.0000000000
557661.4400229550,0.0285339355,9.7999572757,-0.0088500977,-0.0002061632,0.0000325521,0.0000000000
557661.4500229550,0.0279235840,9.7973632816,-0.0265502930,-0.0006293403,0.0000325521,0.0000000000
557661.4600229550,0.0267028809,9.7967529300,-0.0260925293,0.0009223090,0.0000217014,0.0000000000
557661.4700229550,0.0285339355,9.8004150394,-0.0090026855,-0.0009548611,0.0000759549,-0.0000217014
557661.4800229550,0.0289916992,9.7958374027,-0.0338745117,0.0003146701,0.0000217014,0.0000000000
557661.4900229550,0.0273132324,9.7994995120,-0.0131225586,0.0002821181,0.0000108507,0.0000108507
557661.5000229550,0.0268554688,9.7987365726,-0.0196838379,-0.0009982639,0.0000651042,0.0000000000
557661.5100229550,0.0283813477,9.7956848148,-0.0317382813,0.0009223090,-0.0000000000,0.0000217014
557661.5200229550,0.0292968750,9.8005676273,-0.0074768066,-0.0005967882,0.0000651042,0.0000000000
557661.5300229550,0.0279235840,9.7961425784,-0.0318908691,-0.0001953125,0.0000325521,-0.0000217014
557661.5400229550,0.0267028809,9.7981262210,-0.0193786621,0.0006618924,0.0000108507,0.0000000000
557661.5500229551,0.0280761719,9.7996520999,-0.0132751465,-0.0010633681,0.0000434028,0.0000000000
557661.5600229549,0.0296020508,9.7953796390,-0.0335693359,0.0007052951,0.0000108507,0.0000000000
557661.5700229550,0.0285339355,9.8002624515,-0.0103759766,-0.0002170139,0.0000217014,0.0000000000
557661.5800229550,0.0270080566,9.7976684574,-0.0262451172,-0.0006184896,0.0000651042,0.0000108507
557661.5900229550,0.0279235840,9.7964477542,-0.0241088867,0.0009006076,0.0000108507,0.0000108507
557661.6000229550,0.0280761719,9.8005676273,-0.0091552734,-0.0009548611,0.0000651042,-0.0000108507
557661.6100229550,0.0282287598,9.7953796390,-0.0332641602,0.0003472222,0.0000325521,-0.0000108507
557661.6200229550,0.0276184082,9.7993469241,-0.0128173828,0.0002278646,0.0000217014,0.0000000000
557661.6300229550,0.0283813477,9.7973632816,-0.0215148926,-0.0009331597,0.0000325521,0.0000108507
557661.6400229550,0.0280761719,9.7962951663,-0.0300598145,0.0008789062,0.0000217014,0.0000000000
557661.6500229550,0.0274658203,9.8004150394,-0.0077819824,-0.0006293403,0.0000217014,-0.0000108507
557661.6600229550,0.0273132324,9.7961425784,-0.0315856934,-0.0000976562,0.0000325521,0.0000000000
557661.6700229550,0.0279235840,9.7984313968,-0.0186157227,0.0006401910,0.0000325521,0.0000000000
557661.6800229551,0.0279235840,9.7990417484,-0.0146484375,-0.0010525174,0.0000434028,-0.0000217014
557661.6900229550,0.0283813477,9.7955322269,-0.0341796875,0.0007161458,0.0000217014,0.0000000000
557661.7000229550,0.0276184082,9.7998046878,-0.0086975098,-0.0002278646,0.0000217014,0.0000108507
557661.7100229550,0.0271606445,9.7975158695,-0.0270080566,-0.0005750868,0.0000325521,0.0000000000
557661.7200229550,0.0288391113,9.7967529300,-0.0244140625,0.0008897569,0.0000108507,0.0000108507
557661.7300229550,0.0289916992,9.8001098636,-0.0100708008,-0.0009765625,0.0000651042,-0.0000108507
557661.7400229550,0.0279235840,9.7952270511,-0.0341796875,0.0004123264,0.0000434028,0.0000000000
557661.7500229550,0.0274658203,9.7994995120,-0.0143432617,0.0001736111,0.0000108507,0.0000000000
557661.7600229550,0.0274658203,9.7981262210,-0.0215148926,-0.0009223090,0.0000325521,0.0000108507
557661.7700229550,0.0288391113,9.7958374027,-0.0279235840,0.0009331597,0.0000108507,0.0000108507
557661.7800229550,0.0285339355,9.8005676273,-0.0079345703,-0.0007161458,0.0000325521,0.0000000000
557661.7900229550,0.0277709961,9.7958374027,-0.0334167480,-0.0000651042,0.0000325521,0.0000000000
557661.8000229551,0.0270080566,9.7982788089,-0.0177001953,0.0006184896,0.0000108507,0.0000000000
557661.8100229549,0.0288391113,9.7996520999,-0.0146484375,-0.0010633681,0.0000651042,-0.0000108507
557661.8200229550,0.0288391113,9.7956848148,-0.0337219238,0.0007812500,0.0000217014,0.0000000000
557661.8300229550,0.0279235840,9.8002624515,-0.0094604492,-0.0003255208,0.0000325521,-0.0000108507
557661.8400229550,0.0274658203,9.7969055179,-0.0267028809,-0.0005750868,0.0000325521,0.0000000000
557661.8500229550,0.0291442871,9.7967529300,-0.0236511230,0.0009114583,0.0000108507,0.0000000000
557661.8600229550,0.0286865234,9.7999572757,-0.0106811523,-0.0009765625,0.0000651042,-0.0000108507
557661.8700229550,0.0268554688,9.7956848148,-0.0363159180,0.0003580729,0.0000108507,0.0000000000
557661.8800229550,0.0273132324,9.7996520999,-0.0123596191,0.0002929687,0.0000108507,0.0000000000
557661.8900229550,0.0279235840,9.7987365726,-0.0173950195,-0.0010525174,0.0000434028,0.0000000000
557661.9000229550,0.0285339355,9.7956848148,-0.0326538086,0.0009657118,0.0000217014,0.0000000000
557661.9100229550,0.0283813477,9.8002624515,-0.0077819824,-0.0005642361,0.0000325521,-0.0000108507
557661.9200229550,0.0270080566,9.7962951663,-0.0291442871,-0.0003363715,0.0000651042,0.0000000000
557661.9300229551,0.0274658203,9.7969055179,-0.0221252441,0.0008246528,0.0000217014,0.0000000000
557661.9400229550,0.0282287598,9.7990417484,-0.0123596191,-0.0010416667,0.0000434028,-0.0000108507
557661.9500229550,0.0289916992,9.7953796390,-0.0338745117,0.0005208333,0.0000217014,0.0000000000
557661.9600229550,0.0274658203,9.7993469241,-0.0111389160,0.0000217014,0.0000325521,0.0000000000
557661.9700229550,0.0271606445,9.7978210452,-0.0218200684,-0.0008355035,0.0000651042,-0.0000108507
557661.9800229550,0.0282287598,9.7964477542,-0.0285339355,0.0009657118,0.0000108507,0.0000108507
557661.9900229550,0.0282287598,9.8007202152,-0.0082397461,-0.0007921007,0.0000325521,-0.0000108507
557662.0000229550,0.0283813477,9.7953796390,-0.0328063965,0.0000325521,0.0000325521,0.0000000000
557662.0100229550,0.0276184082,9.7985839847,-0.0166320801,0.0005642361,-0.0000000000,0.0000000000
557662.0200229550,0.0274658203,9.7991943363,-0.0155639648,-0.0010959201,0.0000434028,0.0000000000
557662.0300229550,0.0279235840,9.7952270511,-0.0337219238,0.0007486979,0.0000325521,0.0000000000
557662.0400229550,0.0280761719,9.8005676273,-0.0083923340,-0.0003146701,0.0000325521,0.0000000000
557662.0500229551,0.0271606445,9.7966003421,-0.0274658203,-0.0005533854,0.0000434028,-0.0000108507
557662.0600229549,0.0283813477,9.7966003421,-0.0251770020,0.0009331597,-0.0000000000,0.0000000000
557662.0700229550,0.0274658203,9.7999572757,-0.0105285645,-0.0010091146,0.0000434028,-0.0000108507
557662.0800229550,0.0283813477,9.7958374027,-0.0349426270,0.0003255208,0.0000434028,0.0000000000
557662.0900229550,0.0283813477,9.7982788089,-0.0119018555,0.0003038194,0.0000217014,0.0000000000
557662.1000229550,0.0268554688,9.7990417484,-0.0193786621,-0.0010091146,0.0000434028,-0.0000108507
557662.1100229550,0.0274658203,9.7953796390,-0.0328063965,0.0009114583,0.0000108507,0.0000108507
557662.1200229550,0.0283813477,9.8002624515,-0.0074768066,-0.0005642361,0.0000434028,0.0000108507
557662.1300229550,0.0283813477,9.7961425784,-0.0299072266,-0.0002821181,0.0000325521,0.0000000000
557662.1400229550,0.0280761719,9.7982788089,-0.0210571289,0.0008029514,0.0000217014,0.0000000000
557662.1500229550,0.0270080566,9.7991943363,-0.0120544434,-0.0010959201,0.0000434028,0.0000000000
557662.1600229550,0.0283813477,9.7953796390,-0.0343322754,0.0005750868,-0.0000000000,0.0000108507
557662.1700229550,0.0282287598,9.7998046878,-0.0109863281,0.0000217014,0.0000325521,0.0000000000
557662.1800229551,0.0271606445,9.7975158695,-0.0242614746,-0.0008463542,0.0000651042,0.0000108507
557662.1900229550,0.0279235840,9.7964477542,-0.0277709961,0.0009765625,0.0000217014,0.0000000000
557662.2000229550,0.0277709961,9.8001098636,-0.0070190430,-0.0008029514,0.0000325521,-0.0000108507
557662.2100229550,0.0283813477,9.7956848148,-0.0328063965,0.0000651042,0.0000217014,0.0000000000
557662.2200229550,0.0276184082,9.7988891605,-0.0177001953,0.0004882812,0.0000217014,0.0000000000
557662.2300229550,0.0277709961,9.7994995120,-0.0169372559,-0.0010850694,0.0000651042,0.0000000000
557662.2400229550,0.0286865234,9.7953796390,-0.0331115723,0.0008138021,0.0000108507,0.0000000000
557662.2500229550,0.0282287598,9.8005676273,-0.0071716309,-0.0002929687,0.0000325521,0.0000000000
557662.2600229550,0.0270080566,9.7970581058,-0.0292968750,-0.0005425347,0.0000759549,0.0000108507
557662.2700229550,0.0276184082,9.7972106937,-0.0248718262,0.0008897569,0.0000108507,0.0000000000
557662.2800229550,0.0279235840,9.8002624515,-0.0093078613,-0.0010091146,0.0000434028,0.0000108507
557662.2900229560,0.0282287598,9.7949218753,-0.0343322754,0.0004014757,0.0000217014,0.0000108507
557662.3000229560,0.0277709961,9.7996520999,-0.0140380859,0.0001519097,0.0000325521,-0.0000108507
557662.3100229560,0.0277709961,9.7976684574,-0.0215148926,-0.0009223090,0.0000651042,0.0000108507
557662.3200229560,0.0279235840,9.7967529300,-0.0280761719,0.0009331597,-0.0000000000,0.0000000000
557662.3300229560,0.0279235840,9.8005676273,-0.0076293945,-0.0006618924,0.0000651042,-0.0000108507
557662.3400229560,0.0279235840,9.7959899906,-0.0332641602,-0.0001302083,0.0000325521,0.0000000000
557662.3500229560,0.0286865234,9.7981262210,-0.0181579590,0.0006944444,-0.0000000000,0.0000000000
557662.3600229560,0.0270080566,9.7993469241,-0.0120544434,-0.0011284722,0.0000868056,0.0000000000
557662.3700229560,0.0280761719,9.7950744632,-0.0355529785,0.0006727431,-0.0000000000,0.0000000000
557662.3800229559,0.0276184082,9.8001098636,-0.0111389160,-0.0001519097,0.0000325521,0.0000108507
557662.3900229560,0.0279235840,9.7970581058,-0.0241088867,-0.0006401910,0.0000651042,-0.0000108507
557662.4000229560,0.0276184082,9.7970581058,-0.0241088867,0.0009223090,-0.0000000000,0.0000000000
557662.4100229560,0.0283813477,9.8005676273,-0.0115966797,-0.0009114583,0.0000325521,-0.0000108507
557662.4200229560,0.0286865234,9.7953796390,-0.0347900391,0.0002604167,0.0000217014,0.0000000000
557662.4300229560,0.0277709961,9.7991943363,-0.0129699707,0.0002604167,0.0000217014,0.0000000000
557662.4400229560,0.0276184082,9.7985839847,-0.0187683105,-0.0009548611,0.0000651042,-0.0000108507
557662.4500229560,0.0277709961,9.7958374027,-0.0311279297,0.0009331597,0.0000108507,0.0000000000
557662.4600229560,0.0282287598,9.7999572757,-0.0096130371,-0.0006510417,0.0000217014,-0.0000108507
557662.4700229560,0.0280761719,9.7958374027,-0.0309753418,-0.0001410590,0.0000651042,0.0000000000
557662.4800229560,0.0277709961,9.7979736331,-0.0184631348,0.0006618924,0.0000217014,0.0000000000
557662.4900229560,0.0276184082,9.7996520999,-0.0144958496,-0.0010633681,0.0000434028,0.0000000000
557662.5000229561,0.0276184082,9.7950744632,-0.0347900391,0.0006727431,0.0000325521,0.0000108507
557662.5100229559,0.0285339355,9.7994995120,-0.0088500977,-0.0002387153,0.0000108507,0.0000108507
557662.5200229560,0.0273132324,9.7970581058,-0.0245666504,-0.0006184896,0.0000434028,0.0000000000
557662.5300229560,0.0283813477,9.7964477542,-0.0260925293,0.0009331597,0.0000108507,0.0000000000
557662.5400229560,0.0282287598,9.8005676273,-0.0103759766,-0.0009331597,0.0000434028,0.0000000000
557662.5500229560,0.0286865234,9.7953796390,-0.0349426270,0.0002604167,0.0000325521,-0.0000108507
557662.5600229560,0.0276184082,9.7994995120,-0.0128173828,0.0002821181,0.0000325521,0.0000000000
557662.5700229560,0.0270080566,9.7984313968,-0.0187683105,-0.0009657118,0.0000325521,0.0000217014
557662.5800229560,0.0288391113,9.7956848148,-0.0318908691,0.0009223090,0.0000325521,0.0000000000
557662.5900229560,0.0286865234,9.8007202152,-0.0085449219,-0.0006293403,0.0000325521,-0.0000108507
557662.6000229560,0.0273132324,9.7959899906,-0.0306701660,-0.0001627604,0.0000217014,0.0000000000
557662.6100229560,0.0276184082,9.7976684574,-0.0198364258,0.0006944444,0.0000217014,0.0000000000
557662.6200229560,0.0288391113,9.7984313968,-0.0144958496,-0.0010742187,0.0000651042,-0.0000108507
557662.6300229559,0.0280761719,9.7946166995,-0.0346374512,0.0006510417,0.0000108507,0.0000000000
557662.6400229560,0.0268554688,9.8001098636,-0.0077819824,-0.0000651042,0.0000434028,0.0000000000
557662.6500229560,0.0276184082,9.7976684574,-0.0248718262,-0.0007269965,0.0000434028,0.0000108507
557662.6600229560,0.0294494629,9.7959899906,-0.0283813477,0.0009657118,0.0000108507,0.0000000000
557662.6700229560,0.0292968750,9.7999572757,-0.0090026855,-0.0008789062,0.0000434028,-0.0000325521
557662.6800229560,0.0268554688,9.7959899906,-0.0326538086,0.0001302083,0.0000325521,-0.0000108507
557662.6900229560,0.0267028809,9.7988891605,-0.0146484375,0.0004340278,0.0000217014,0.0000000000
557662.7000229560,0.0288391113,9.7987365726,-0.0173950195,-0.0010525174,0.0000759549,0.0000108507
557662.7100229560,0.0292968750,9.7947692874,-0.0332641602,0.0008789062,-0.0000000000,0.0000000000
557662.7200229560,0.0268554688,9.7999572757,-0.0071716309,-0.0004882812,0.0000325521,-0.0000108507
557662.7300229560,0.0262451172,9.7966003421,-0.0299072266,-0.0003580729,0.0000651042,0.0000000000
557662.7400229560,0.0288391113,9.7973632816,-0.0216674805,0.0008029514,0.0000108507,0.0000000000
557662.7500229561,0.0296020508,9.7990417484,-0.0105285645,-0.0010633681,0.0000651042,0.0000000000
557662.7600229559,0.0283813477,9.7944641116,-0.0344848633,0.0004991319,0.0000108507,-0.0000108507
557662.7700229560,0.0265502930,9.7990417484,-0.0120544434,0.0000434028,0.0000217014,0.0000108507
557662.7800229560,0.0279235840,9.7978210452,-0.0225830078,-0.0008463542,0.0000759549,0.0000108507
557662.7900229560,0.0294494629,9.7966003421,-0.0292968750,0.0009657118,-0.0000000000,0.0000000000
557662.8000229560,0.0276184082,9.7999572757,-0.0080871582,-0.0007703993,0.0000434028,0.0000000000
557662.8100229560,0.0273132324,9.7956848148,-0.0325012207,-0.0000325521,0.0000434028,0.0000000000
557662.8200229560,0.0277709961,9.7982788089,-0.0175476074,0.0006184896,0.0000217014,0.0000000000
557662.8300229560,0.0280761719,9.7993469241,-0.0152587891,-0.0011393229,0.0000325521,0.0000000000
557662.8400229560,0.0286865234,9.7950744632,-0.0354003906,0.0007161458,0.0000434028,0.0000000000
557662.8500229560,0.0274658203,9.7998046878,-0.0086975098,-0.0001519097,0.0000108507,0.0000000000
557662.8600229560,0.0274658203,9.7978210452,-0.0256347656,-0.0007052951,0.0000325521,0.0000108507
557662.8700229560,0.0276184082,9.7966003421,-0.0274658203,0.0009874132,0.0000325521,0.0000000000
557662.8800229559,0.0292968750,9.7999572757,-0.0071716309,-0.0009331597,0.0000434028,0.0000000000
557662.8900229560,0.0283813477,9.7955322269,-0.0337219238,0.0001736111,0.0000217014,0.0000108507
557662.9000229560,0.0267028809,9.7987365726,-0.0163269043,0.0003797743,0.0000217014,0.0000000000
557662.9100229560,0.0279235840,9.7987365726,-0.0178527832,-0.0010199653,0.0000325521,0.0000108507
557662.9200229560,0.0277709961,9.7964477542,-0.0317382813,0.0008680556,0.0000108507,0.0000000000
557662.9300229560,0.0285339355,9.8011779788,-0.0086975098,-0.0004557292,0.0000434028,-0.0000325521
557662.9400229560,0.0270080566,9.7962951663,-0.0286865234,-0.0003363715,0.0000434028,0.0000000000
557662.9500229560,0.0279235840,9.7976684574,-0.0233459473,0.0008138021,0.0000108507,0.0000108507
557662.9600229560,0.0286865234,9.8002624515,-0.0111389160,-0.0010850694,0.0000759549,0.0000000000
557662.9700229560,0.0279235840,9.7950744632,-0.0347900391,0.0005316840,0.0000108507,0.0000000000
557662.9800229560,0.0282287598,9.7993469241,-0.0111389160,0.0000434028,0.0000217014,-0.0000217014
557662.9900229560,0.0273132324,9.7978210452,-0.0225830078,-0.0008355035,0.0000434028,0.0000000000
557663.0000229561,0.0282287598,9.7958374027,-0.0283813477,0.0009874132,0.0000217014,0.0000000000
557663.0100229559,0.0285339355,9.8005676273,-0.0086975098,-0.0007921007,0.0000325521,-0.0000108507
557663.0200229560,0.0285339355,9.7958374027,-0.0334167480,-0.0000325521,0.0000434028,0.0000108507
557663.0300229560,0.0280761719,9.7988891605,-0.0181579590,0.0005750868,0.0000108507,-0.0000108507
557663.0400229560,0.0271606445,9.7996520999,-0.0144958496,-0.0010959201,0.0000434028,0.0000217014
557663.0500229560,0.0283813477,9.7953796390,-0.0338745117,0.0008138021,0.0000217014,0.0000108507
557663.0600229560,0.0282287598,9.8004150394,-0.0085449219,-0.0002821181,0.0000325521,0.0000000000
557663.0700229560,0.0282287598,9.7964477542,-0.0263977051,-0.0005750868,0.0000434028,-0.0000108507
557663.0800229560,0.0279235840,9.7969055179,-0.0254821777,0.0009114583,0.0000217014,0.0000000000
557663.0900229560,0.0277709961,9.8004150394,-0.0097656250,-0.0009765625,0.0000325521,0.0000000000
557663.1000229560,0.0282287598,9.7956848148,-0.0344848633,0.0002821181,0.0000325521,0.0000108507
557663.1100229560,0.0282287598,9.7993469241,-0.0131225586,0.0002712674,0.0000108507,0.0000000000
557663.1200229560,0.0276184082,9.7988891605,-0.0190734863,-0.0009331597,0.0000217014,0.0000000000
557663.1300229559,0.0276184082,9.7966003421,-0.0306701660,0.0009223090,0.0000434028,0.0000000000
557663.1400229560,0.0289916992,9.8008728031,-0.0079345703,-0.0006293403,0.0000434028,0.0000000000
557663.1500229560,0.0285339355,9.7956848148,-0.0325012207,-0.0001844618,0.0000434028,0.0000000000
557663.1600229560,0.0274658203,9.7985839847,-0.0189208984,0.0006510417,0.0000325521,0.0000000000
557663.1700229560,0.0263977051,9.7994995120,-0.0123596191,-0.0011067708,0.0000651042,0.0000000000
557663.1800229560,0.0282287598,9.7958374027,-0.0349426270,0.0007052951,-0.0000000000,0.0000108507
557663.1900229560,0.0289916992,9.7999572757,-0.0099182129,-0.0001410590,0.0000434028,0.0000000000
557663.2000229560,0.0276184082,9.7976684574,-0.0253295898,-0.0006618924,0.0000434028,-0.0000108507
557663.2100229560,0.0268554688,9.7961425784,-0.0265502930,0.0009765625,-0.0000000000,0.0000000000
557663.2200229560,0.0260925293,9.8002624515,-0.0094604492,-0.0009548611,0.0000651042,0.0000108507
557663.2300229560,0.0296020508,9.7955322269,-0.0343322754,0.0001410590,-0.0000000000,0.0000000000
557663.2400229560,0.0289916992,9.7991943363,-0.0146484375,0.0004557292,0.0000217014,-0.0000108507
557663.2500229561,0.0267028809,9.7987365726,-0.0161743164,-0.0010742187,0.0000759549,0.0000000000
557663.2600229559,0.0267028809,9.7958374027,-0.0343322754,0.0008789062,-0.0000000000,0.0000000000
557663.2700229560,0.0292968750,9.8005676273,-0.0074768066,-0.0003363715,0.0000325521,0.0000217014
557663.2800229560,0.0288391113,9.7970581058,-0.0282287598,-0.0005642361,0.0000651042,0.0000000000
557663.2900229560,0.0276184082,9.7970581058,-0.0241088867,0.0009331597,0.0000108507,0.0000000000
557663.3000229560,0.0268554688,9.7999572757,-0.0096130371,-0.0010199653,0.0000325521,0.0000108507
557663.3100229560,0.0283813477,9.7952270511,-0.0355529785,0.0002712674,0.0000325521,0.0000108507
557663.3200229560,0.0291442871,9.7990417484,-0.0129699707,0.0003038194,0.0000325521,0.0000000000
557663.3300229560,0.0276184082,9.7987365726,-0.0183105469,-0.0009548611,0.0000434028,-0.0000108507
557663.3400229560,0.0265502930,9.7953796390,-0.0328063965,0.0009223090,-0.0001844618,0.0000000000
557663.3500229560,0.0280761719,9.8002624515,-0.0100708008,-0.0005859375,-0.0007921007,0.0000000000
557663.3600229570,0.0267028809,9.7966003421,-0.0306701660,-0.0003255208,-0.0030056424,0.0000000000
557663.3700229570,0.0256347656,9.7979736331,-0.0216674805,0.0007269965,-0.0048611111,0.0000000000
557663.3800229570,0.0270080566,9.7998046878,-0.0152587891,-0.0011067708,-0.0056966146,0.0000000000
557663.3900229570,0.0282287598,9.7955322269,-0.0347900391,0.0006076389,-0.0067165799,0.0000000000
557663.4000229570,0.0268554688,9.7998046878,-0.0122070313,-0.0001302083,-0.0076931424,0.0000000000
557663.4100229570,0.0276184082,9.7973632816,-0.0236511230,-0.0007703993,-0.0078776042,0.0000000000
557663.4200229570,0.0271606445,9.7964477542,-0.0279235840,0.0009657118,-0.0093098958,0.0000000000
557663.4300229570,0.0259399414,9.8007202152,-0.0122070313,-0.0009548611,-0.0098849826,0.0000000000
557663.4400229570,0.0277709961,9.7958374027,-0.0320434570,0.0000217014,-0.0106987847,0.0000000000
557663.4500229571,0.0280761719,9.7984313968,-0.0149536133,0.0004774306,-0.0116644965,0.0000217014
557663.4600229569,0.0277709961,9.7991943363,-0.0190734863,-0.0011067708,-0.0122612847,-0.0000108507
557663.4700229570,0.0256347656,9.7949218753,-0.0343322754,0.0007921007,-0.0134874132,-0.0000108507
557663.4800229570,0.0262451172,9.8004150394,-0.0080871582,-0.0005316840,-0.0145073785,0.0000000000
557663.4900229570,0.0285339355,9.7964477542,-0.0271606445,-0.0004991319,-0.0150499132,0.0000108507
557663.5000229570,0.0288391113,9.7970581058,-0.0242614746,0.0008138021,-0.0162217882,0.0000000000
557663.5100229570,0.0260925293,9.7996520999,-0.0135803223,-0.0011393229,-0.0170789931,0.0000000000
557663.5200229570,0.0263977051,9.7953796390,-0.0350952148,0.0003797743,-0.0177300347,0.0000108507
557663.5300229570,0.0271606445,9.7994995120,-0.0122070313,0.0001302083,-0.0189561632,0.0000108507
557663.5400229570,0.0288391113,9.7979736331,-0.0218200684,-0.0010091146,-0.0195421007,0.0000000000
557663.5500229570,0.0277709961,9.7959899906,-0.0321960449,0.0008789062,-0.0206163194,0.0000000000
557663.5600229570,0.0250244141,9.7998046878,-0.0077819824,-0.0008029514,-0.0214843750,0.0000000000
557663.5700229571,0.0263977051,9.7956848148,-0.0318908691,-0.0002387153,-0.0221028646,0.0000325521
557663.5800229569,0.0283813477,9.7985839847,-0.0212097168,0.0005642361,-0.0232638889,0.0000000000
557663.5900229570,0.0280761719,9.7994995120,-0.0151062012,-0.0011393229,-0.0240668403,0.0000000000
557663.6000229570,0.0256347656,9.7952270511,-0.0337219238,0.0005099826,-0.0246202257,0.0000217014
557663.6100229570,0.0267028809,9.7999572757,-0.0111389160,-0.0002061632,-0.0260416667,0.0000108507
557663.6200229570,0.0294494629,9.7972106937,-0.0236511230,-0.0008355035,-0.0265516493,0.0000108507
557663.6300229570,0.0280761719,9.7972106937,-0.0283813477,0.0007921007,-0.0274631076,0.0000000000
557663.6400229570,0.0265502930,9.8004150394,-0.0112915039,-0.0010091146,-0.0290039062,0.0000000000
557663.6500229570,0.0270080566,9.7950744632,-0.0318908691,0.0000759549,-0.0290690104,0.0000108507
557663.6600229570,0.0270080566,9.7990417484,-0.0167846680,0.0003146701,-0.0298719618,0.0000000000
557663.6700229570,0.0283813477,9.7990417484,-0.0196838379,-0.0011718750,-0.0311197917,0.0000000000
557663.6800229570,0.0280761719,9.7956848148,-0.0308227539,0.0007052951,-0.0314453125,0.0000000000
557663.6900229570,0.0250244141,9.7996520999,-0.0094604492,-0.0005859375,-0.0328125000,0.0000108507
557663.7000229571,0.0270080566,9.7962951663,-0.0306701660,-0.0005533854,-0.0339301215,0.0000217014
557663.7100229569,0.0302124023,9.7975158695,-0.0224304199,0.0006727431,-0.0339735243,0.0000000000
557663.7200229570,0.0254821777,9.7998046878,-0.0132751465,-0.0011935764,-0.0357096354,0.0000000000
557663.7300229570,0.0273132324,9.7953796390,-0.0326538086,0.0003472222,-0.0363932292,0.0000108507
557663.7400229570,0.0271606445,9.7991943363,-0.0120544434,-0.0000651042,-0.0369791667,0.0000217014
557663.7500229570,0.0270080566,9.7979736331,-0.0263977051,-0.0010199653,-0.0383138021,0.0000108507
557663.7600229570,0.0285339355,9.7958374027,-0.0276184082,0.0007595486,-0.0385308160,0.0000108507
557663.7700229570,0.0265502930,9.8001098636,-0.0097656250,-0.0009874132,-0.0396375868,0.0000217014
557663.7800229570,0.0273132324,9.7959899906,-0.0331115723,-0.0000759549,-0.0409613715,0.0000108507
557663.7900229570,0.0282287598,9.7981262210,-0.0178527832,0.0002929687,-0.0412109375,0.0000108507
557663.8000229570,0.0270080566,9.7988891605,-0.0181579590,-0.0012044271,-0.0423828125,0.0000108507
557663.8100229570,0.0273132324,9.7958374027,-0.0318908691,0.0006401910,-0.0434461806,0.0000325521
557663.8200229571,0.0282287598,9.7998046878,-0.0091552734,-0.0005533854,-0.0435438368,0.0000217014
557663.8300229569,0.0257873535,9.7962951663,-0.0303649902,-0.0007052951,-0.0452256944,0.0000217014
557663.8400229570,0.0276184082,9.7972106937,-0.0239562988,0.0006401910,-0.0458333333,0.0000000000
557663.8500229570,0.0277709961,9.7993469241,-0.0108337402,-0.0011827257,-0.0462673611,0.0000108507
557663.8600229570,0.0268554688,9.7953796390,-0.0344848633,0.0002170139,-0.0478732639,0.0000217014
557663.8700229570,0.0277709961,9.7994995120,-0.0141906738,0.0000000000,-0.0483832465,0.0000000000
557663.8800229570,0.0277709961,9.7982788089,-0.0215148926,-0.0011610243,-0.0485026042,0.0000000000
557663.8900229570,0.0268554688,9.7964477542,-0.0315856934,0.0006944444,-0.0506944444,0.0000217014
557663.9000229570,0.0280761719,9.8004150394,-0.0083923340,-0.0009548611,-0.0509006076,0.0000108507
557663.9100229570,0.0263977051,9.7959899906,-0.0325012207,-0.0002712674,-0.0518446181,0.0000108507
557663.9200229570,0.0263977051,9.7978210452,-0.0201416016,0.0004557292,-0.0529839410,0.0000217014
557663.9300229570,0.0277709961,9.7994995120,-0.0157165527,-0.0013454861,-0.0529947917,0.0000108507
557663.9400229570,0.0276184082,9.7953796390,-0.0350952148,0.0005099826,-0.0545789931,0.0000108507
557663.9500229571,0.0279235840,9.7996520999,-0.0093078613,-0.0004448785,-0.0555013021,0.0000000000
557663.9600229569,0.0256347656,9.7969055179,-0.0271606445,-0.0008789062,-0.0561197917,0.0000217014
557663.9700229570,0.0279235840,9.7967529300,-0.0274658203,0.0006835937,-0.0572808160,0.0000325521
557663.9800229570,0.0279235840,9.8001098636,-0.0102233887,-0.0012044271,-0.0580078125,0.0000000000
557663.9900229570,0.0270080566,9.7950744632,-0.0341796875,0.0000108507,-0.0589843750,0.0000217014
557664.0000229570,0.0282287598,9.7990417484,-0.0149536133,0.0001410590,-0.0596028646,0.0000217014
557664.0100229570,0.0267028809,9.7987365726,-0.0199890137,-0.0013129340,-0.0605577257,0.0000108507
557664.0200229570,0.0274658203,9.7955322269,-0.0337219238,0.0006510417,-0.0613606771,0.0000217014
557664.0300229570,0.0280761719,9.8008728031,-0.0074768066,-0.0008138021,-0.0624782986,0.0000217014
557664.0400229570,0.0273132324,9.7964477542,-0.0280761719,-0.0006184896,-0.0630859375,0.0000217014
557664.0500229570,0.0259399414,9.7972106937,-0.0236511230,0.0005642361,-0.0642252604,0.0000108507
557664.0600229570,0.0282287598,9.8002624515,-0.0134277344,-0.0013454861,-0.0647894965,0.0000108507
557664.0700229571,0.0285339355,9.7953796390,-0.0335693359,0.0002929687,-0.0655707465,0.0000108507
557664.0800229569,0.0263977051,9.7999572757,-0.0129699707,-0.0002278646,-0.0668402778,0.0000325521
557664.0900229570,0.0271606445,9.7979736331,-0.0231933594,-0.0011501736,-0.0675781250,0.0000217014
557664.1000229570,0.0276184082,9.7961425784,-0.0292968750,0.0006401910,-0.0682617187,0.0000217014
557664.1100229570,0.0277709961,9.8008728031,-0.0105285645,-0.0010850694,-0.0692382812,0.0000108507
557664.1200229570,0.0282287598,9.7959899906,-0.0317382813,-0.0003038194,-0.0700737847,0.0000000000
557664.1300229570,0.0276184082,9.7984313968,-0.0199890137,0.0002821181,-0.0708984375,0.0000325521
557664.1400229570,0.0263977051,9.7988891605,-0.0175476074,-0.0013454861,-0.0722439236,0.0000217014
557664.1500229570,0.0285339355,9.7961425784,-0.0315856934,0.0004231771,-0.0724066840,0.0000325521
557664.1600229570,0.0282287598,9.7998046878,-0.0106811523,-0.0006618924,-0.0736870660,0.0000325521
557664.1700229570,0.0271606445,9.7970581058,-0.0291442871,-0.0007378472,-0.0746636285,0.0000217014
557664.1800229570,0.0279235840,9.7976684574,-0.0233459473,0.0004991319,-0.0748046875,0.0000217014
557664.1900229570,0.0270080566,9.7994995120,-0.0134277344,-0.0013346354,-0.0763997396,0.0000217014
557664.2000229571,0.0277709961,9.7955322269,-0.0338745117,0.0001736111,-0.0772243924,0.0000217014
557664.2100229569,0.0283813477,9.7996520999,-0.0125122070,-0.0002604167,-0.0777777778,0.0000217014
557664.2200229570,0.0267028809,9.7979736331,-0.0227355957,-0.0011827257,-0.0791341146,0.0000434028
557664.2300229570,0.0270080566,9.7959899906,-0.0292968750,0.0005859375,-0.0797634549,0.0000434028
557664.2400229570,0.0289916992,9.8007202152,-0.0093078613,-0.0011718750,-0.0800889757,0.0000217014
557664.2500229570,0.0274658203,9.7953796390,-0.0334167480,-0.0002712674,-0.0814887153,0.0000325521
557664.2600229570,0.0271606445,9.7993469241,-0.0172424316,0.0001302083,-0.0821614583,0.0000434028
557664.2700229570,0.0271606445,9.7984313968,-0.0175476074,-0.0013780382,-0.0831922743,0.0000217014
557664.2800229570,0.0274658203,9.7946166995,-0.0320434570,0.0004340278,-0.0843532986,0.0000217014
557664.2900229570,0.0288391113,9.8007202152,-0.0093078613,-0.0007269965,-0.0847547743,0.0000217014
557664.3000229570,0.0267028809,9.7964477542,-0.0299072266,-0.0008572049,-0.0860243056,0.0000217014
557664.3100229570,0.0262451172,9.7976684574,-0.0236511230,0.0005099826,-0.0866427951,0.0000217014
557664.3200229571,0.0282287598,9.8004150394,-0.0105285645,-0.0013780382,-0.0873046875,0.0000434028
557664.3300229569,0.0280761719,9.7946166995,-0.0357055664,0.0000651042,-0.0888454861,0.0000325521
557664.3400229570,0.0286865234,9.7991943363,-0.0135803223,-0.0002170139,-0.0893012153,0.0000217014
557664.3500229570,0.0267028809,9.7982788089,-0.0227355957,-0.0013237847,-0.0902018229,0.0000217014
557664.3600229570,0.0273132324,9.7961425784,-0.0302124023,0.0005533854,-0.0914388021,0.0000434028
557664.3700229570,0.0286865234,9.8002624515,-0.0083923340,-0.0010742187,-0.0914930556,0.0000217014
557664.3800229570,0.0282287598,9.7964477542,-0.0323486328,-0.0005533854,-0.0925889757,0.0000108507
557664.3900229570,0.0265502930,9.7981262210,-0.0215148926,0.0003038194,-0.0941189236,0.0000434028
557664.4000229570,0.0271606445,9.7990417484,-0.0132751465,-0.0014973958,-0.0941080729,0.0000434028
557664.4100229570,0.0279235840,9.7958374027,-0.0346374512,0.0002604167,-0.0954644097,0.0000325521
557664.4200229570,0.0282287598,9.7993469241,-0.0117492676,-0.0005750868,-0.0964626736,0.0000217014
557664.4300229580,0.0274658203,9.7976684574,-0.0254821777,-0.0011067708,-0.0968315972,0.0000325521
557664.4400229580,0.0265502930,9.7959899906,-0.0268554688,0.0005099826,-0.0981879340,0.0000325521
557664.4500229580,0.0280761719,9.8004150394,-0.0103759766,-0.0013563368,-0.0988823785,0.0000325521
557664.4600229580,0.0289916992,9.7956848148,-0.0328063965,-0.0001844618,-0.0994574653,0.0000325521
557664.4700229580,0.0271606445,9.7988891605,-0.0166320801,-0.0000108507,-0.1008572049,0.0000325521
557664.4800229580,0.0267028809,9.7987365726,-0.0193786621,-0.0014865451,-0.1014322917,0.0000325521
557664.4900229580,0.0282287598,9.7944641116,-0.0318908691,0.0004448785,-0.1019097222,0.0000542535
557664.5000229580,0.0291442871,9.8007202152,-0.0094604492,-0.0009548611,-0.1036241319,0.0000217014
557664.5100229580,0.0279235840,9.7966003421,-0.0291442871,-0.0007921007,-0.1039822049,0.0000217014
557664.5200229581,0.0254821777,9.7975158695,-0.0239562988,0.0003906250,-0.1051215278,0.0000542535
557664.5300229579,0.0270080566,9.7990417484,-0.0131225586,-0.0015299479,-0.1061957465,0.0000434028
557664.5400229580,0.0297546387,9.7947692874,-0.0331115723,0.0000759549,-0.1064778646,0.0000325521
557664.5500229580,0.0268554688,9.8005676273,-0.0132751465,-0.0003906250,-0.1076822917,0.0000325521
557664.5600229580,0.0271606445,9.7975158695,-0.0224304199,-0.0013129340,-0.1084635417,0.0000542535
557664.5700229580,0.0279235840,9.7962951663,-0.0294494629,0.0004774306,-0.1093315972,0.0000434028
557664.5800229580,0.0291442871,9.8007202152,-0.0086975098,-0.0012044271,-0.1099717882,0.0000217014
557664.5900229580,0.0280761719,9.7953796390,-0.0321960449,-0.0005425347,-0.1112196181,0.0000542535
557664.6000229580,0.0267028809,9.7981262210,-0.0199890137,0.0001302083,-0.1116427951,0.0000108507
557664.6100229580,0.0263977051,9.7996520999,-0.0169372559,-0.0015625000,-0.1132703993,0.0000434028
557664.6200229580,0.0285339355,9.7959899906,-0.0317382813,0.0001953125,-0.1136501736,0.0000542535
557664.6300229580,0.0279235840,9.7998046878,-0.0100708008,-0.0006944444,-0.1142252604,0.0000434028
557664.6400229580,0.0268554688,9.7966003421,-0.0260925293,-0.0011393229,-0.1157443576,0.0000434028
557664.6500229581,0.0274658203,9.7967529300,-0.0265502930,0.0004774306,-0.1161241319,0.0000325521
557664.6600229579,0.0268554688,9.8007202152,-0.0111389160,-0.0014431424,-0.1171766493,0.0000434028
557664.6700229580,0.0286865234,9.7953796390,-0.0335693359,-0.0002604167,-0.1179904514,0.0000542535
557664.6800229580,0.0277709961,9.7991943363,-0.0169372559,-0.0000651042,-0.1187065972,0.0000325521
557664.6900229580,0.0267028809,9.7987365726,-0.0187683105,-0.0015950521,-0.1199652778,0.0000434028
557664.7000229580,0.0283813477,9.7952270511,-0.0325012207,0.0003580729,-0.1207356771,0.0000434028
557664.7100229580,0.0286865234,9.8002624515,-0.0099182129,-0.0009223090,-0.1214409722,0.0000651042
557664.7200229580,0.0273132324,9.7970581058,-0.0291442871,-0.0010308160,-0.1226996528,0.0000217014
557664.7300229580,0.0277709961,9.7972106937,-0.0236511230,0.0003689236,-0.1232855903,0.0000542535
557664.7400229580,0.0270080566,9.8001098636,-0.0115966797,-0.0014865451,-0.1241536458,0.0000542535
557664.7500229580,0.0285339355,9.7958374027,-0.0352478027,-0.0001844618,-0.1251627604,0.0000325521
557664.7600229580,0.0285339355,9.7991943363,-0.0134277344,-0.0003255208,-0.1258138021,0.0000542535
557664.7700229581,0.0262451172,9.7981262210,-0.0199890137,-0.0014865451,-0.1268880208,0.0000434028
557664.7800229579,0.0273132324,9.7956848148,-0.0296020508,0.0003906250,-0.1279730903,0.0000434028
557664.7900229580,0.0296020508,9.8004150394,-0.0096130371,-0.0011501736,-0.1280707465,0.0000217014
557664.8000229580,0.0274658203,9.7964477542,-0.0328063965,-0.0007052951,-0.1292751736,0.0000542535
557664.8100229580,0.0279235840,9.7979736331,-0.0184631348,0.0000542535,-0.1302951389,0.0000651042
557664.8200229580,0.0267028809,9.7991943363,-0.0154113770,-0.0016059028,-0.1312608507,0.0000542535
557664.8300229580,0.0288391113,9.7949218753,-0.0335693359,0.0001627604,-0.1322916667,0.0000542535
557664.8400229580,0.0285339355,9.8002624515,-0.0102233887,-0.0007812500,-0.1329644097,0.0000217014
557664.8500229580,0.0286865234,9.7975158695,-0.0268554688,-0.0012369792,-0.1331380208,0.0000434028
557664.8600229580,0.0262451172,9.7959899906,-0.0279235840,0.0003689236,-0.1351019965,0.0000651042
557664.8700229580,0.0280761719,9.8007202152,-0.0083923340,-0.0014865451,-0.1351453993,0.0000542535
557664.8800229580,0.0291442871,9.7956848148,-0.0343322754,-0.0003580729,-0.1362738715,0.0000434028
557664.8900229580,0.0265502930,9.7988891605,-0.0175476074,-0.0001519097,-0.1374782986,0.0000542535
557664.9000229581,0.0273132324,9.7991943363,-0.0169372559,-0.0016927083,-0.1376953125,0.0000434028
557664.9100229579,0.0282287598,9.7958374027,-0.0331115723,0.0002604167,-0.1393988715,0.0000542535
557664.9200229580,0.0285339355,9.7999572757,-0.0100708008,-0.0009874132,-0.1398437500,0.0000325521
557664.9300229580,0.0283813477,9.7972106937,-0.0294494629,-0.0010308160,-0.1401692708,0.0000434028
557664.9400229580,0.0267028809,9.7976684574,-0.0230407715,0.0002387153,-0.1418945312,0.0000759549
557664.9500229580,0.0279235840,9.7998046878,-0.0115966797,-0.0016818576,-0.1427300347,0.0000542535
557664.9600229580,0.0297546387,9.7953796390,-0.0331115723,-0.0000868056,-0.1431749132,0.0000434028
557664.9700229580,0.0277709961,9.7998046878,-0.0146484375,-0.0005642361,-0.1447265625,0.0000542535
557664.9800229580,0.0274658203,9.7979736331,-0.0230407715,-0.0015190972,-0.1450195312,0.0000651042
557664.9900229580,0.0282287598,9.7962951663,-0.0270080566,0.0003689236,-0.1458441840,0.0000759549
557665.0000229580,0.0274658203,9.8008728031,-0.0094604492,-0.0014105903,-0.1471028646,0.0000542535
557665.0100229580,0.0296020508,9.7955322269,-0.0323486328,-0.0006944444,-0.1475911458,0.0000651042
557665.0200229581,0.0262451172,9.7984313968,-0.0195312500,0.0000434028,-0.1484809028,0.0000542535
557665.0300229579,0.0265502930,9.7991943363,-0.0146484375,-0.0018120660,-0.1496202257,0.0000651042
557665.0400229580,0.0288391113,9.7955322269,-0.0338745117,0.0001085069,-0.1501736111,0.0000542535
557665.0500229580,0.0282287598,9.7999572757,-0.0119018555,-0.0007812500,-0.1513671875,0.0000542535
557665.0600229580,0.0282287598,9.7981262210,-0.0256347656,-0.0013780382,-0.1521809896,0.0000542535
557665.0700229580,0.0262451172,9.7966003421,-0.0276184082,0.0003255208,-0.1529405382,0.0000759549
557665.0800229580,0.0271606445,9.8002624515,-0.0091552734,-0.0015407986,-0.1538085937,0.0000651042
557665.0900229580,0.0302124023,9.7955322269,-0.0337219238,-0.0005099826,-0.1547309028,0.0000542535
557665.1000229580,0.0285339355,9.7985839847,-0.0173950195,-0.0001844618,-0.1550021701,0.0000434028
557665.1100229580,0.0259399414,9.7994995120,-0.0178527832,-0.0017686632,-0.1568793403,0.0000434028
557665.1200229580,0.0276184082,9.7959899906,-0.0314331055,0.0001844618,-0.1572482639,0.0000651042
557665.1300229580,0.0282287598,9.8002624515,-0.0106811523,-0.0010091146,-0.1581922743,0.0000759549
557665.1400229580,0.0292968750,9.7967529300,-0.0285339355,-0.0011501736,-0.1595269097,0.0000434028
557665.1500229581,0.0277709961,9.7976684574,-0.0236511230,0.0001302083,-0.1595811632,0.0000542535
557665.1600229579,0.0257873535,9.7994995120,-0.0117492676,-0.0016710069,-0.1607313368,0.0000759549
557665.1700229580,0.0296020508,9.7947692874,-0.0338745117,-0.0002387153,-0.1619466146,0.0000868056
557665.1800229580,0.0305175781,9.8002624515,-0.0135803223,-0.0005642361,-0.1622504340,0.0000325521
557665.1900229580,0.0260925293,9.7978210452,-0.0221252441,-0.0015407986,-0.1635959201,0.0000542535
557665.2000229580,0.0263977051,9.7961425784,-0.0288391113,0.0002061632,-0.1643229167,0.0000976562
557665.2100229580,0.0292968750,9.8005676273,-0.0096130371,-0.0014322917,-0.1647786458,0.0000651042
557665.2200229580,0.0297546387,9.7956848148,-0.0323486328,-0.0007812500,-0.1661024305,0.0000651042
557665.2300229580,0.0274658203,9.7982788089,-0.0196838379,-0.0000976562,-0.1666341146,0.0000542535
557665.2400229580,0.0260925293,9.7990417484,-0.0154113770,-0.0018012153,-0.1675564236,0.0000542535
557665.2500229580,0.0285339355,9.7958374027,-0.0334167480,0.0000000000,-0.1689561632,0.0000759549
557665.2600229580,0.0308227539,9.7994995120,-0.0096130371,-0.0009874132,-0.1693684896,0.0000759549
557665.2700229581,0.0280761719,9.7972106937,-0.0283813477,-0.0011935764,-0.1705186632,0.0000434028
557665.2800229579,0.0279235840,9.7967529300,-0.0230407715,0.0000434028,-0.1712782118,0.0000868056
557665.2900229580,0.0273132324,9.8001098636,-0.0134277344,-0.0016927083,-0.1720486111,0.0000759549
557665.3000229580,0.0299072266,9.7947692874,-0.0334167480,-0.0002929687,-0.1731987847,0.0000651042
557665.3100229580,0.0294494629,9.7993469241,-0.0122070313,-0.0006618924,-0.1740559896,0.0000542535
557665.3200229580,0.0274658203,9.7975158695,-0.0218200684,-0.0015516493,-0.1744791667,0.0000542535
557665.3300229580,0.0271606445,9.7955322269,-0.0271606445,0.0002170139,-0.1755967882,0.0000868056
557665.3400229580,0.0297546387,9.8002624515,-0.0096130371,-0.0015516493,-0.1754882812,0.0000976562
557665.3500229580,0.0311279297,9.7956848148,-0.0326538086,-0.0006835937,-0.1749674479,0.0000651042
557665.3600229580,0.0294494629,9.7982788089,-0.0166320801,-0.0002604167,-0.1744249132,0.0000542535
557665.3700229580,0.0273132324,9.7982788089,-0.0154113770,-0.0017578125,-0.1741644965,0.0000759549
557665.3800229580,0.0280761719,9.7958374027,-0.0315856934,0.0000759549,-0.1741753472,0.0000868056
557665.3900229580,0.0315856934,9.7999572757,-0.0103759766,-0.0010959201,-0.1741102430,0.0000759549
557665.4000229581,0.0297546387,9.7962951663,-0.0276184082,-0.0012152778,-0.1742404514,0.0000542535
557665.4100229579,0.0265502930,9.7967529300,-0.0225830078,0.0001193576,-0.1742838542,0.0000868056
557665.4200229580,0.0285339355,9.7999572757,-0.0108337402,-0.0017361111,-0.1742947049,0.0000759549
557665.4300229580,0.0299072266,9.7949218753,-0.0341796875,-0.0003255208,-0.1743164062,0.0000759549
557665.4400229580,0.0306701660,9.7988891605,-0.0135803223,-0.0005750868,-0.1742513021,0.0000651042
557665.4500229580,0.0279235840,9.7981262210,-0.0202941895,-0.0016493056,-0.1742404514,0.0000542535
557665.4600229580,0.0263977051,9.7958374027,-0.0285339355,0.0002170139,-0.1742730035,0.0000976562
557665.4700229580,0.0288391113,9.8002624515,-0.0096130371,-0.0013888889,-0.1741861979,0.0000868056
557665.4800229580,0.0309753418,9.7956848148,-0.0309753418,-0.0009223090,-0.1742404514,0.0000759549
557665.4900229580,0.0299072266,9.7973632816,-0.0184631348,-0.0000325521,-0.1743272569,0.0000542535
557665.5000229580,0.0259399414,9.7998046878,-0.0129699707,-0.0018446181,-0.1742187500,0.0000651042
557665.5100229590,0.0285339355,9.7950744632,-0.0332641602,-0.0000651042,-0.1742838542,0.0000976562
557665.5200229590,0.0308227539,9.7996520999,-0.0114440918,-0.0008680556,-0.1743489583,0.0000759549
557665.5300229590,0.0302124023,9.7973632816,-0.0242614746,-0.0014105903,-0.1742730035,0.0000651042
557665.5400229590,0.0268554688,9.7967529300,-0.0247192383,0.0002170139,-0.1743164062,0.0000868056
557665.5500229590,0.0273132324,9.8004150394,-0.0103759766,-0.0017035590,-0.1743598090,0.0000976562
557665.5600229590,0.0303649902,9.7952270511,-0.0326538086,-0.0005425347,-0.1743598090,0.0000651042
557665.5700229590,0.0299072266,9.7988891605,-0.0141906738,-0.0003363715,-0.1743489583,0.0000651042
557665.5800229590,0.0277709961,9.7988891605,-0.0175476074,-0.0017903646,-0.1743055555,0.0000651042
557665.5900229590,0.0274658203,9.7952270511,-0.0320434570,0.0001627604,-0.1743381076,0.0000868056
557665.6000229591,0.0289916992,9.7999572757,-0.0090026855,-0.0011935764,-0.1742947049,0.0000868056
557665.6100229590,0.0294494629,9.7970581058,-0.0280761719,-0.0011935764,-0.1743598090,0.0000759549
557665.6200229590,0.0292968750,9.7973632816,-0.0215148926,0.0000976562,-0.1743489583,0.0000759549
557665.6300229590,0.0277709961,9.7999572757,-0.0114440918,-0.0018120660,-0.1743381076,0.0000759549
557665.6400229590,0.0289916992,9.7952270511,-0.0340270996,-0.0002495660,-0.1743164062,0.0000542535
557665.6500229590,0.0285339355,9.7994995120,-0.0128173828,-0.0005533854,-0.1744032118,0.0000759549
557665.6600229590,0.0291442871,9.7979736331,-0.0207519531,-0.0017144097,-0.1743706597,0.0000868056
557665.6700229590,0.0297546387,9.7961425784,-0.0291442871,0.0002061632,-0.1743598090,0.0000759549
557665.6800229590,0.0270080566,9.8007202152,-0.0079345703,-0.0013888889,-0.1744357639,0.0000651042
557665.6900229590,0.0286865234,9.7964477542,-0.0299072266,-0.0009440104,-0.1743598090,0.0000651042
557665.7000229590,0.0303649902,9.7982788089,-0.0199890137,-0.0000759549,-0.1744249132,0.0000868056
557665.7100229590,0.0297546387,9.7996520999,-0.0129699707,-0.0018229167,-0.1743489583,0.0000542535
557665.7200229591,0.0279235840,9.7949218753,-0.0331115723,-0.0000976562,-0.1744032118,0.0000651042
557665.7300229589,0.0277709961,9.8002624515,-0.0103759766,-0.0007703993,-0.1743489583,0.0000759549
557665.7400229590,0.0292968750,9.7978210452,-0.0222778320,-0.0015516493,-0.1742838542,0.0000759549
557665.7500229590,0.0303649902,9.7966003421,-0.0260925293,0.0002495660,-0.1743381076,0.0000759549
557665.7600229590,0.0282287598,9.8005676273,-0.0088500977,-0.0015842014,-0.1744140625,0.0000542535
557665.7700229590,0.0274658203,9.7956848148,-0.0334167480,-0.0007052951,-0.1744140625,0.0000759549
557665.7800229590,0.0300598145,9.7987365726,-0.0175476074,-0.0001844618,-0.1743815104,0.0000651042
557665.7900229590,0.0300598145,9.7988891605,-0.0149536133,-0.0018446181,-0.1744032118,0.0000651042
557665.8000229590,0.0286865234,9.7950744632,-0.0320434570,0.0000868056,-0.1744140625,0.0000651042
557665.8100229590,0.0268554688,9.8002624515,-0.0093078613,-0.0010199653,-0.1744357639,0.0000868056
557665.8200229590,0.0292968750,9.7967529300,-0.0263977051,-0.0013563368,-0.1743706597,0.0000868056
557665.8300229590,0.0303649902,9.7972106937,-0.0247192383,0.0001519097,-0.1744249132,0.0000759549
557665.8400229590,0.0282287598,9.8002624515,-0.0097656250,-0.0017361111,-0.1744140625,0.0000759549
557665.8500229591,0.0280761719,9.7955322269,-0.0331115723,-0.0003797743,-0.1744683160,0.0000542535
557665.8600229590,0.0289916992,9.7990417484,-0.0131225586,-0.0005099826,-0.1743598090,0.0000976562
557665.8700229590,0.0292968750,9.7982788089,-0.0196838379,-0.0016493056,-0.1743598090,0.0000868056
557665.8800229590,0.0282287598,9.7959899906,-0.0282287598,0.0001844618,-0.1744574653,0.0000868056
557665.8900229590,0.0271606445,9.8004150394,-0.0083923340,-0.0013780382,-0.1743381076,0.0000759549
557665.9000229590,0.0286865234,9.7955322269,-0.0315856934,-0.0009331597,-0.1744683160,0.0000759549
557665.9100229590,0.0297546387,9.7976684574,-0.0189208984,-0.0000651042,-0.1744900174,0.0000651042
557665.9200229590,0.0285339355,9.7991943363,-0.0120544434,-0.0018229167,-0.1743706597,0.0000759549
557665.9300229590,0.0283813477,9.7952270511,-0.0323486328,-0.0000325521,-0.1744466146,0.0000651042
557665.9400229590,0.0285339355,9.8002624515,-0.0119018555,-0.0008355035,-0.1744466146,0.0000868056
557665.9500229590,0.0299072266,9.7975158695,-0.0238037109,-0.0014973958,-0.1743815104,0.0000651042
557665.9600229590,0.0294494629,9.7967529300,-0.0251770020,0.0001736111,-0.1744466146,0.0000759549
557665.9700229591,0.0276184082,9.8002624515,-0.0080871582,-0.0016276042,-0.1744900174,0.0000759549
557665.9800229589,0.0283813477,9.7955322269,-0.0334167480,-0.0005533854,-0.1744466146,0.0000976562
557665.9900229590,0.0288391113,9.7985839847,-0.0164794922,-0.0003363715,-0.1742838542,0.0001085069
557666.0000229590,0.0294494629,9.7981262210,-0.0177001953,-0.0017361111,-0.1742730035,0.0000651042
557666.0100229590,0.0296020508,9.7959899906,-0.0289916992,0.0000868056,-0.1745659722,0.0000976562
557666.0200229590,0.0280761719,9.8007202152,-0.0091552734,-0.0012369792,-0.1745008680,0.0000759549
557666.0300229590,0.0279235840,9.7964477542,-0.0296020508,-0.0010633681,-0.1745334201,0.0000759549
557666.0400229590,0.0286865234,9.7976684574,-0.0201416016,0.0000000000,-0.1743489583,0.0000868056
557666.0500229590,0.0292968750,9.8001098636,-0.0103759766,-0.0018120660,-0.1743598090,0.0000759549
557666.0600229590,0.0289916992,9.7953796390,-0.0337219238,-0.0000759549,-0.1744466146,0.0000976562
557666.0700229590,0.0280761719,9.7999572757,-0.0111389160,-0.0007921007,-0.1744140625,0.0000759549
557666.0800229590,0.0285339355,9.7975158695,-0.0224304199,-0.0015299479,-0.1743923611,0.0000759549
557666.0900229590,0.0292968750,9.7966003421,-0.0256347656,0.0002061632,-0.1745768229,0.0000868056
557666.1000229591,0.0277709961,9.8004150394,-0.0086975098,-0.0015950521,-0.1744357639,0.0000651042
557666.1100229590,0.0286865234,9.7961425784,-0.0318908691,-0.0006184896,-0.1743815104,0.0000651042
557666.1200229590,0.0286865234,9.7981262210,-0.0155639648,-0.0002712674,-0.1745551215,0.0000759549
557666.1300229590,0.0285339355,9.7990417484,-0.0169372559,-0.0017361111,-0.1744466146,0.0000651042
557666.1400229590,0.0296020508,9.7955322269,-0.0305175781,0.0000976562,-0.1744683160,0.0000868056
557666.1500229590,0.0279235840,9.8007202152,-0.0096130371,-0.0012369792,-0.1744357639,0.0000759549
557666.1600229590,0.0279235840,9.7967529300,-0.0270080566,-0.0010742187,-0.1743598090,0.0000759549
557666.1700229590,0.0291442871,9.7967529300,-0.0198364258,0.0000000000,-0.1744683160,0.0000976562
557666.1800229590,0.0294494629,9.7993469241,-0.0128173828,-0.0017144097,-0.1743489583,0.0000651042
557666.1900229590,0.0288391113,9.7950744632,-0.0337219238,-0.0001736111,-0.1744249132,0.0000976562
557666.2000229590,0.0285339355,9.8001098636,-0.0120544434,-0.0008138021,-0.1744683160,0.0000759549
557666.2100229590,0.0279235840,9.7978210452,-0.0225830078,-0.0014648437,-0.1744574653,0.0000759549
557666.2200229591,0.0288391113,9.7966003421,-0.0253295898,0.0001736111,-0.1745008680,0.0000868056
557666.2300229589,0.0286865234,9.8004150394,-0.0094604492,-0.0016276042,-0.1744900174,0.0000651042
557666.2400229590,0.0291442871,9.7949218753,-0.0318908691,-0.0005859375,-0.1744791667,0.0000759549
557666.2500229590,0.0286865234,9.7991943363,-0.0154113770,-0.0002712674,-0.1745442708,0.0000976562
557666.2600229590,0.0292968750,9.7991943363,-0.0166320801,-0.0018012153,-0.1745117187,0.0000868056
557666.2700229590,0.0289916992,9.7950744632,-0.0317382813,0.0001302083,-0.1744466146,0.0000868056
557666.2800229590,0.0277709961,9.8007202152,-0.0074768066,-0.0011935764,-0.1745008680,0.0000651042
557666.2900229590,0.0288391113,9.7958374027,-0.0256347656,-0.0011827257,-0.1743815104,0.0000759549
557666.3000229590,0.0292968750,9.7973632816,-0.0222778320,0.0000759549,-0.1743815104,0.0000651042
557666.3100229590,0.0283813477,9.7999572757,-0.0134277344,-0.0017361111,-0.1744466146,0.0000759549
557666.3200229590,0.0283813477,9.7958374027,-0.0323486328,-0.0002387153,-0.1743815104,0.0001085069
557666.3300229590,0.0292968750,9.7993469241,-0.0108337402,-0.0006618924,-0.1744466146,0.0000868056
557666.3400229590,0.0300598145,9.7982788089,-0.0207519531,-0.0015407986,-0.1744791667,0.0000868056
557666.3500229591,0.0289916992,9.7962951663,-0.0285339355,0.0002061632,-0.1745008680,0.0000759549
557666.3600229590,0.0273132324,9.8002624515,-0.0094604492,-0.0015407986,-0.1744900174,0.0000651042
557666.3700229590,0.0285339355,9.7961425784,-0.0302124023,-0.0007703993,-0.1745225694,0.0000868056
557666.3800229590,0.0297546387,9.7979736331,-0.0164794922,-0.0001193576,-0.1744683160,0.0000868056
557666.3900229590,0.0297546387,9.7993469241,-0.0146484375,-0.0018120660,-0.1745225694,0.0000651042
557666.4000229590,0.0279235840,9.7952270511,-0.0337219238,0.0000325521,-0.1745442708,0.0000976562
557666.4100229590,0.0271606445,9.8001098636,-0.0077819824,-0.0010525174,-0.1745117187,0.0000868056
557666.4200229590,0.0289916992,9.7966003421,-0.0247192383,-0.0013129340,-0.1745008680,0.0000868056
557666.4300229590,0.0294494629,9.7967529300,-0.0247192383,0.0001736111,-0.1744683160,0.0000759549
557666.4400229590,0.0280761719,9.8005676273,-0.0099182129,-0.0017361111,-0.1743489583,0.0000759549
557666.4500229590,0.0280761719,9.7952270511,-0.0320434570,-0.0004231771,-0.1744791667,0.0000976562
557666.4600229590,0.0285339355,9.7991943363,-0.0120544434,-0.0004340278,-0.1744683160,0.0001085069
557666.4700229591,0.0292968750,9.7984313968,-0.0184631348,-0.0016818576,-0.1744574653,0.0000759549
557666.4800229589,0.0286865234,9.7959899906,-0.0308227539,0.0001627604,-0.1745551215,0.0000868056
557666.4900229590,0.0271606445,9.8004150394,-0.0076293945,-0.0013888889,-0.1745117187,0.0000759549
557666.5000229590,0.0289916992,9.7959899906,-0.0291442871,-0.0009440104,-0.1745008680,0.0001085069
557666.5100229590,0.0292968750,9.7982788089,-0.0184631348,0.0000000000,-0.1744574653,0.0000651042
557666.5200229590,0.0274658203,9.7993469241,-0.0137329102,-0.0018012153,-0.1744249132,0.0000651042
557666.5300229590,0.0280761719,9.7955322269,-0.0331115723,-0.0000759549,-0.1745117187,0.0000976562
557666.5400229590,0.0286865234,9.7999572757,-0.0088500977,-0.0008572049,-0.1744574653,0.0000868056
557666.5500229590,0.0296020508,9.7978210452,-0.0239562988,-0.0014648437,-0.1745117187,0.0000651042
557666.5600229590,0.0292968750,9.7966003421,-0.0263977051,0.0001519097,-0.1745225694,0.0000651042
557666.5700229590,0.0274658203,9.8002624515,-0.0093078613,-0.0016493056,-0.1743381076,0.0000868056
557666.5800229600,0.0282287598,9.7956848148,-0.0309753418,-0.0005316840,-0.1744032118,0.0000759549
557666.5900229600,0.0289916992,9.7996520999,-0.0134277344,-0.0003363715,-0.1744249132,0.0001085069
557666.6000229600,0.0300598145,9.7993469241,-0.0173950195,-0.0017469618,-0.1743923611,0.0000868056
557666.6100229600,0.0289916992,9.7955322269,-0.0318908691,0.0001410590,-0.1744574653,0.0000868056
557666.6200229600,0.0274658203,9.8002624515,-0.0077819824,-0.0012044271,-0.1743815104,0.0000759549
557666.6300229600,0.0285339355,9.7969055179,-0.0268554688,-0.0011827257,-0.1744791667,0.0000976562
557666.6400229600,0.0292968750,9.7975158695,-0.0228881836,0.0001627604,-0.1745225694,0.0000868056
557666.6500229600,0.0285339355,9.8002624515,-0.0093078613,-0.0018120660,-0.1745442708,0.0000759549
557666.6600229600,0.0282287598,9.7950744632,-0.0323486328,-0.0003038194,-0.1746093750,0.0000976562
557666.6700229601,0.0286865234,9.7991943363,-0.0114440918,-0.0005208333,-0.1745985243,0.0000976562
557666.6800229599,0.0296020508,9.7985839847,-0.0199890137,-0.0016710069,-0.1745117187,0.0000759549
557666.6900229600,0.0279235840,9.7959899906,-0.0303649902,0.0001736111,-0.1746202257,0.0000868056
557666.7000229600,0.0273132324,9.8007202152,-0.0074768066,-0.0013888889,-0.1744140625,0.0000868056
557666.7100229600,0.0277709961,9.7961425784,-0.0285339355,-0.0009223090,-0.1745117187,0.0001085069
557666.7200229600,0.0297546387,9.7982788089,-0.0184631348,-0.0000434028,-0.1744140625,0.0000976562
557666.7300229600,0.0294494629,9.7998046878,-0.0144958496,-0.0018012153,-0.1744574653,0.0000759549
557666.7400229600,0.0276184082,9.7950744632,-0.0320434570,-0.0000325521,-0.1744357639,0.0000976562
557666.7500229600,0.0274658203,9.8002624515,-0.0097656250,-0.0009765625,-0.1744791667,0.0000868056
557666.7600229600,0.0285339355,9.7969055179,-0.0244140625,-0.0013346354,-0.1744683160,0.0000759549
557666.7700229600,0.0296020508,9.7961425784,-0.0241088867,0.0002061632,-0.1745334201,0.0000976562
557666.7800229600,0.0288391113,9.8007202152,-0.0091552734,-0.0017252604,-0.1744683160,0.0000868056
557666.7900229600,0.0279235840,9.7950744632,-0.0323486328,-0.0004340278,-0.1744791667,0.0000976562
557666.8000229599,0.0280761719,9.7985839847,-0.0137329102,-0.0003689236,-0.1745225694,0.0000759549
557666.8100229600,0.0294494629,9.7988891605,-0.0187683105,-0.0017361111,-0.1745225694,0.0000868056
557666.8200229600,0.0299072266,9.7956848148,-0.0292968750,0.0001302083,-0.1745876736,0.0000868056
557666.8300229600,0.0274658203,9.8001098636,-0.0074768066,-0.0013129340,-0.1744466146,0.0000651042
557666.8400229600,0.0283813477,9.7961425784,-0.0282287598,-0.0009657118,-0.1744574653,0.0000868056
557666.8500229600,0.0285339355,9.7976684574,-0.0207519531,0.0000000000,-0.1745117187,0.0000976562
557666.8600229600,0.0280761719,9.8004150394,-0.0126647949,-0.0018229167,-0.1743923611,0.0000868056
557666.8700229600,0.0285339355,9.7956848148,-0.0317382813,-0.0000976562,-0.1744574653,0.0000976562
557666.8800229600,0.0286865234,9.7996520999,-0.0094604492,-0.0008029514,-0.1745334201,0.0000868056
557666.8900229600,0.0289916992,9.7976684574,-0.0234985352,-0.0014648437,-0.1743923611,0.0000759549
557666.9000229600,0.0291442871,9.7959899906,-0.0270080566,0.0001844618,-0.1745117187,0.0000759549
557666.9100229600,0.0265502930,9.8002624515,-0.0088500977,-0.0016601562,-0.1746093750,0.0000976562
557666.9200229601,0.0294494629,9.7956848148,-0.0308227539,-0.0005533854,-0.1745117187,0.0000976562
557666.9300229599,0.0300598145,9.7988891605,-0.0155639648,-0.0002495660,-0.1745008680,0.0000976562
557666.9400229600,0.0286865234,9.7991943363,-0.0167846680,-0.0018446181,-0.1745442708,0.0000759549
557666.9500229600,0.0274658203,9.7950744632,-0.0315856934,0.0001302083,-0.1745985243,0.0000651042
557666.9600229600,0.0282287598,9.7996520999,-0.0073242188,-0.0011827257,-0.1743598090,0.0000868056
557666.9700229600,0.0294494629,9.7969055179,-0.0277709961,-0.0012152778,-0.1745225694,0.0000759549
557666.9800229600,0.0291442871,9.7970581058,-0.0238037109,0.0001627604,-0.1745551215,0.0000868056
557666.9900229600,0.0273132324,9.7996520999,-0.0097656250,-0.0017903646,-0.1743815104,0.0000976562
557667.0000229600,0.0286865234,9.7953796390,-0.0321960449,-0.0003363715,-0.1744683160,0.0001085069
557667.0100229600,0.0296020508,9.7994995120,-0.0125122070,-0.0005099826,-0.1748697917,0.0000868056
557667.0200229600,0.0283813477,9.7984313968,-0.0190734863,-0.0017252604,-0.1743923611,0.0000651042
557667.0300229600,0.0280761719,9.7949218753,-0.0296020508,0.0002278646,-0.1745551215,0.0000976562
557667.0400229600,0.0273132324,9.8007202152,-0.0064086914,-0.0014431424,-0.1745225694,0.0000976562
557667.0500229599,0.0302124023,9.7958374027,-0.0296020508,-0.0008897569,-0.1742730035,0.0001085069
557667.0600229600,0.0285339355,9.7978210452,-0.0199890137,0.0000325521,-0.1744249132,0.0000868056
557667.0700229600,0.0273132324,9.7993469241,-0.0122070313,-0.0018880208,-0.1743923611,0.0000759549
557667.0800229600,0.0280761719,9.7944641116,-0.0326538086,-0.0000434028,-0.1745985243,0.0000976562
557667.0900229600,0.0280761719,9.7994995120,-0.0093078613,-0.0008355035,-0.1746527778,0.0000868056
557667.1000229600,0.0306701660,9.7975158695,-0.0233459473,-0.0014865451,-0.1745117187,0.0000651042
557667.1100229600,0.0291442871,9.7958374027,-0.0268554688,0.0002170139,-0.1745117187,0.0000759549
557667.1200229600,0.0260925293,9.8005676273,-0.0079345703,-0.0016276042,-0.1745551215,0.0000868056
557667.1300229600,0.0282287598,9.7956848148,-0.0321960449,-0.0005859375,-0.1745442708,0.0001085069
557667.1400229600,0.0299072266,9.7987365726,-0.0143432617,-0.0002170139,-0.1744140625,0.0001085069
557667.1500229600,0.0289916992,9.7990417484,-0.0163269043,-0.0018337674,-0.1744357639,0.0000651042
557667.1600229600,0.0273132324,9.7949218753,-0.0314331055,0.0000759549,-0.1744900174,0.0000868056
557667.1700229601,0.0282287598,9.8001098636,-0.0080871582,-0.0011284722,-0.1744466146,0.0000976562
557667.1800229599,0.0286865234,9.7969055179,-0.0265502930,-0.0011610243,-0.1744466146,0.0000868056
557667.1900229600,0.0291442871,9.7972106937,-0.0215148926,0.0000651042,-0.1745225694,0.0000976562
557667.2000229600,0.0279235840,9.7998046878,-0.0112915039,-0.0017144097,-0.1745334201,0.0000976562
557667.2100229600,0.0277709961,9.7950744632,-0.0315856934,-0.0002170139,-0.1745334201,0.0000976562
557667.2200229600,0.0292968750,9.7990417484,-0.0103759766,-0.0007269965,-0.1744683160,0.0000651042
557667.2300229600,0.0294494629,9.7981262210,-0.0224304199,-0.0015516493,-0.1744791667,0.0000759549
557667.2400229600,0.0277709961,9.7962951663,-0.0274658203,0.0002278646,-0.1746310764,0.0000868056
557667.2500229600,0.0277709961,9.7996520999,-0.0061035156,-0.0015407986,-0.1745225694,0.0000976562
557667.2600229600,0.0289916992,9.7964477542,-0.0306701660,-0.0006944444,-0.1745876736,0.0000868056
557667.2700229600,0.0292968750,9.7987365726,-0.0161743164,-0.0001302083,-0.1745117187,0.0000976562
557667.2800229600,0.0271606445,9.7991943363,-0.0151062012,-0.0018771701,-0.1744574653,0.0000759549
557667.2900229600,0.0283813477,9.7952270511,-0.0326538086,0.0000434028,-0.1743598090,0.0001085069
557667.3000229599,0.0297546387,9.8007202152,-0.0079345703,-0.0010416667,-0.1744249132,0.0000976562
557667.3100229600,0.0294494629,9.7972106937,-0.0245666504,-0.0013346354,-0.1744683160,0.0000759549
557667.3200229600,0.0280761719,9.7964477542,-0.0244140625,0.0002278646,-0.1744683160,0.0000868056
557667.3300229600,0.0273132324,9.7998046878,-0.0093078613,-0.0017144097,-0.1745117187,0.0000976562
557667.3400229600,0.0292968750,9.7950744632,-0.0331115723,-0.0004448785,-0.1745117187,0.0001085069
557667.3500229600,0.0292968750,9.7991943363,-0.0131225586,-0.0004557292,-0.1745225694,0.0000651042
557667.3600229600,0.0288391113,9.7994995120,-0.0181579590,-0.0017144097,-0.1744140625,0.0000868056
557667.3700229600,0.0280761719,9.7958374027,-0.0291442871,0.0001844618,-0.1745117187,0.0000976562
557667.3800229600,0.0283813477,9.8008728031,-0.0080871582,-0.0013671875,-0.1744574653,0.0000976562
557667.3900229600,0.0294494629,9.7958374027,-0.0285339355,-0.0009223090,-0.1745334201,0.0000868056
557667.4000229600,0.0288391113,9.7979736331,-0.0187683105,0.0000000000,-0.1745008680,0.0000868056
557667.4100229600,0.0271606445,9.7994995120,-0.0120544434,-0.0018229167,-0.1744357639,0.0000759549
557667.4200229601,0.0280761719,9.7952270511,-0.0328063965,-0.0000759549,-0.1745442708,0.0000976562
557667.4300229599,0.0299072266,9.7998046878,-0.0088500977,-0.0008463542,-0.1745117187,0.0000868056
557667.4400229600,0.0289916992,9.7973632816,-0.0216674805,-0.0014865451,-0.1744249132,0.0000868056
557667.4500229600,0.0276184082,9.7967529300,-0.0257873535,0.0002495660,-0.1745442708,0.0001085069
557667.4600229600,0.0274658203,9.7999572757,-0.0079345703,-0.0015842014,-0.1745225694,0.0000976562
557667.4700229600,0.0291442871,9.7953796390,-0.0312805176,-0.0006401910,-0.1744791667,0.0000868056
557667.4800229600,0.0308227539,9.7988891605,-0.0160217285,-0.0002604167,-0.1745008680,0.0000759549
557667.4900229600,0.0276184082,9.7987365726,-0.0148010254,-0.0017903646,-0.1745117187,0.0000868056
557667.5000229600,0.0270080566,9.7950744632,-0.0312805176,0.0000542535,-0.1745551215,0.0000868056
557667.5100229600,0.0289916992,9.7999572757,-0.0077819824,-0.0011284722,-0.1745225694,0.0000976562
557667.5200229600,0.0303649902,9.7964477542,-0.0274658203,-0.0011610243,-0.1746093750,0.0000868056
557667.5300229600,0.0288391113,9.7976684574,-0.0222778320,0.0001193576,-0.1745551215,0.0000651042
557667.5400229600,0.0263977051,9.7996520999,-0.0099182129,-0.0017578125,-0.1744683160,0.0000976562
557667.5500229599,0.0283813477,9.7952270511,-0.0315856934,-0.0002170139,-0.1743598090,0.0000976562
557667.5600229600,0.0303649902,9.7991943363,-0.0106811523,-0.0007052951,-0.1744574653,0.0001085069
557667.5700229600,0.0291442871,9.7981262210,-0.0210571289,-0.0014973958,-0.1744791667,0.0000759549
557667.5800229600,0.0267028809,9.7966003421,-0.0260925293,0.0001627604,-0.1745117187,0.0001085069
557667.5900229600,0.0274658203,9.8004150394,-0.0077819824,-0.0015516493,-0.1744140625,0.0000976562
557667.6000229600,0.0291442871,9.7955322269,-0.0317382813,-0.0005533854,-0.1745442708,0.0001085069
557667.6100229600,0.0294494629,9.7988891605,-0.0146484375,-0.0003472222,-0.1745551215,0.0000651042
557667.6200229600,0.0280761719,9.7985839847,-0.0149536133,-0.0017361111,-0.1744574653,0.0000759549
557667.6300229600,0.0273132324,9.7955322269,-0.0292968750,0.0000868056,-0.1745334201,0.0000976562
557667.6400229600,0.0289916992,9.8001098636,-0.0083923340,-0.0012369792,-0.1744791667,0.0000976562
557667.6500229610,0.0311279297,9.7964477542,-0.0280761719,-0.0010416667,-0.1745008680,0.0000976562
557667.6600229610,0.0288391113,9.7979736331,-0.0207519531,0.0000434028,-0.1745334201,0.0000868056
557667.6700229610,0.0267028809,9.7999572757,-0.0109863281,-0.0017903646,-0.1745334201,0.0000759549
557667.6800229610,0.0271606445,9.7955322269,-0.0325012207,-0.0001953125,-0.1745225694,0.0001085069
557667.6900229610,0.0299072266,9.7998046878,-0.0096130371,-0.0007052951,-0.1744791667,0.0001085069
557667.7000229610,0.0305175781,9.7982788089,-0.0224304199,-0.0015733507,-0.1744683160,0.0000759549
557667.7100229610,0.0276184082,9.7959899906,-0.0273132324,0.0002387153,-0.1745442708,0.0000976562
557667.7200229610,0.0262451172,9.8011779788,-0.0076293945,-0.0015407986,-0.1744683160,0.0000868056
557667.7300229610,0.0296020508,9.7956848148,-0.0306701660,-0.0006727431,-0.1745334201,0.0001085069
557667.7400229611,0.0303649902,9.7987365726,-0.0152587891,-0.0002387153,-0.1744900174,0.0000976562
557667.7500229609,0.0286865234,9.7985839847,-0.0151062012,-0.0018120660,-0.1745117187,0.0000759549
557667.7600229610,0.0267028809,9.7953796390,-0.0309753418,0.0000868056,-0.1745876736,0.0001085069
557667.7700229610,0.0280761719,9.8001098636,-0.0079345703,-0.0011501736,-0.1745117187,0.0000868056
557667.7800229610,0.0306701660,9.7967529300,-0.0270080566,-0.0011284722,-0.1745117187,0.0000868056
557667.7900229610,0.0294494629,9.7979736331,-0.0207519531,0.0000868056,-0.1746202257,0.0001085069
557667.8000229610,0.0271606445,9.7996520999,-0.0091552734,-0.0017578125,-0.1745768229,0.0000976562
557667.8100229610,0.0285339355,9.7956848148,-0.0326538086,-0.0002061632,-0.1744574653,0.0000976562
557667.8200229610,0.0280761719,9.7994995120,-0.0106811523,-0.0007052951,-0.1745117187,0.0000868056
557667.8300229610,0.0291442871,9.7978210452,-0.0202941895,-0.0015733507,-0.1744791667,0.0000868056
557667.8400229610,0.0291442871,9.7962951663,-0.0260925293,0.0001844618,-0.1744466146,0.0000868056
557667.8500229610,0.0276184082,9.8005676273,-0.0085449219,-0.0014865451,-0.1745117187,0.0000976562
557667.8600229610,0.0291442871,9.7958374027,-0.0303649902,-0.0006835937,-0.1744249132,0.0001085069
557667.8700229611,0.0286865234,9.7987365726,-0.0154113770,-0.0001953125,-0.1744357639,0.0000868056
557667.8800229609,0.0285339355,9.7987365726,-0.0158691406,-0.0017686632,-0.1745225694,0.0000976562
557667.8900229610,0.0288391113,9.7964477542,-0.0312805176,0.0000759549,-0.1745117187,0.0000976562
557667.9000229610,0.0277709961,9.8004150394,-0.0076293945,-0.0011827257,-0.1745008680,0.0000759549
557667.9100229610,0.0297546387,9.7970581058,-0.0259399414,-0.0011284722,-0.1744683160,0.0001193576
557667.9200229610,0.0297546387,9.7975158695,-0.0198364258,0.0000542535,-0.1745225694,0.0000868056
557667.9300229610,0.0283813477,9.7998046878,-0.0126647949,-0.0016601562,-0.1746093750,0.0000868056
557667.9400229610,0.0273132324,9.7953796390,-0.0308227539,-0.0002495660,-0.1744574653,0.0000976562
557667.9500229610,0.0285339355,9.8001098636,-0.0099182129,-0.0007921007,-0.1745225694,0.0000868056
557667.9600229610,0.0294494629,9.7976684574,-0.0213623047,-0.0014648437,-0.1745334201,0.0000759549
557667.9700229610,0.0291442871,9.7958374027,-0.0250244141,0.0002061632,-0.1745985243,0.0000976562
557667.9800229610,0.0274658203,9.8005676273,-0.0079345703,-0.0016167535,-0.1744249132,0.0001085069
557667.9900229611,0.0280761719,9.7952270511,-0.0311279297,-0.0004991319,-0.1744683160,0.0001085069
557668.0000229609,0.0291442871,9.7993469241,-0.0134277344,-0.0003363715,-0.1745008680,0.0001085069
557668.0100229610,0.0291442871,9.7990417484,-0.0163269043,-0.0017361111,-0.1746744792,0.0000976562
557668.0200229610,0.0286865234,9.7956848148,-0.0306701660,0.0001736111,-0.1745008680,0.0000868056
557668.0300229610,0.0270080566,9.8005676273,-0.0077819824,-0.0012803819,-0.1744791667,0.0000976562
557668.0400229610,0.0285339355,9.7967529300,-0.0271606445,-0.0011067708,-0.1745334201,0.0001193576
557668.0500229610,0.0296020508,9.7972106937,-0.0210571289,0.0001193576,-0.1745334201,0.0001085069
557668.0600229610,0.0283813477,9.7996520999,-0.0096130371,-0.0018012153,-0.1744357639,0.0000976562
557668.0700229610,0.0280761719,9.7946166995,-0.0331115723,-0.0001953125,-0.1745225694,0.0001085069
557668.0800229610,0.0282287598,9.8004150394,-0.0115966797,-0.0007269965,-0.1744791667,0.0001085069
557668.0900229610,0.0291442871,9.7978210452,-0.0195312500,-0.0015625000,-0.1744791667,0.0000868056
557668.1000229610,0.0297546387,9.7967529300,-0.0257873535,0.0001844618,-0.1745008680,0.0000976562
557668.1100229610,0.0285339355,9.7999572757,-0.0086975098,-0.0015082465,-0.1744249132,0.0000976562
557668.1200229611,0.0276184082,9.7955322269,-0.0312805176,-0.0007052951,-0.1745442708,0.0000868056
557668.1300229609,0.0280761719,9.7987365726,-0.0157165527,-0.0001844618,-0.1745551215,0.0001085069
557668.1400229610,0.0291442871,9.7993469241,-0.0134277344,-0.0017903646,-0.1743598090,0.0000868056
557668.1500229610,0.0294494629,9.7949218753,-0.0315856934,0.0000868056,-0.1745008680,0.0000976562
557668.1600229610,0.0271606445,9.8001098636,-0.0082397461,-0.0010742187,-0.1745768229,0.0000868056
557668.1700229610,0.0288391113,9.7970581058,-0.0248718262,-0.0013020833,-0.1745008680,0.0000976562
557668.1800229610,0.0297546387,9.7967529300,-0.0219726563,0.0002061632,-0.1744466146,0.0000976562
557668.1900229610,0.0289916992,9.7999572757,-0.0091552734,-0.0017252604,-0.1744249132,0.0000976562
557668.2000229610,0.0285339355,9.7947692874,-0.0326538086,-0.0003255208,-0.1745008680,0.0000759549
557668.2100229610,0.0262451172,9.7998046878,-0.0112915039,-0.0004774306,-0.1745225694,0.0001085069
557668.2200229610,0.0285339355,9.7985839847,-0.0177001953,-0.0017144097,-0.1745117187,0.0000868056
557668.2300229610,0.0300598145,9.7958374027,-0.0296020508,0.0002061632,-0.1745442708,0.0001085069
557668.2400229611,0.0280761719,9.8011779788,-0.0062561035,-0.0013671875,-0.1745225694,0.0000976562
557668.2500229609,0.0283813477,9.7959899906,-0.0286865234,-0.0009440104,-0.1745442708,0.0001193576
557668.2600229610,0.0286865234,9.7985839847,-0.0195312500,0.0000000000,-0.1744900174,0.0001085069
557668.2700229610,0.0285339355,9.8004150394,-0.0105285645,-0.0017903646,-0.1743272569,0.0000976562
557668.2800229610,0.0294494629,9.7946166995,-0.0325012207,-0.0001085069,-0.1745225694,0.0000976562
557668.2900229610,0.0274658203,9.8002624515,-0.0093078613,-0.0008138021,-0.1745225694,0.0000868056
557668.3000229610,0.0282287598,9.7975158695,-0.0209045410,-0.0014431424,-0.1744574653,0.0001085069
557668.3100229610,0.0289916992,9.7967529300,-0.0251770020,0.0001844618,-0.1744900174,0.0001193576
557668.3200229610,0.0302124023,9.8008728031,-0.0094604492,-0.0016384549,-0.1743923611,0.0000976562
557668.3300229610,0.0286865234,9.7952270511,-0.0317382813,-0.0004991319,-0.1745334201,0.0000976562
557668.3400229610,0.0277709961,9.7993469241,-0.0119018555,-0.0003255208,-0.1745008680,0.0001085069
557668.3500229610,0.0285339355,9.7991943363,-0.0160217285,-0.0018012153,-0.1744466146,0.0000868056
557668.3600229610,0.0296020508,9.7956848148,-0.0308227539,0.0001627604,-0.1745551215,0.0000976562
557668.3700229611,0.0282287598,9.8002624515,-0.0068664551,-0.0012478299,-0.1745551215,0.0000868056
557668.3800229609,0.0273132324,9.7970581058,-0.0271606445,-0.0010525174,-0.1744791667,0.0001193576
557668.3900229610,0.0283813477,9.7982788089,-0.0186157227,0.0000542535,-0.1744466146,0.0001193576
557668.4000229610,0.0296020508,9.8001098636,-0.0106811523,-0.0017903646,-0.1743706597,0.0001085069
557668.4100229610,0.0300598145,9.7950744632,-0.0315856934,-0.0000976562,-0.1744574653,0.0000868056
557668.4200229610,0.0280761719,9.7996520999,-0.0085449219,-0.0008355035,-0.1744140625,0.0000868056
557668.4300229610,0.0271606445,9.7973632816,-0.0231933594,-0.0014756944,-0.1744140625,0.0001085069
557668.4400229610,0.0280761719,9.7966003421,-0.0256347656,0.0002170139,-0.1745551215,0.0001085069
557668.4500229610,0.0296020508,9.8004150394,-0.0076293945,-0.0016167535,-0.1745117187,0.0000868056
557668.4600229610,0.0291442871,9.7956848148,-0.0308227539,-0.0005533854,-0.1744683160,0.0000759549
557668.4700229610,0.0274658203,9.7979736331,-0.0143432617,-0.0002821181,-0.1745876736,0.0001085069
557668.4800229610,0.0277709961,9.7987365726,-0.0163269043,-0.0017903646,-0.1744900174,0.0000976562
557668.4900229611,0.0299072266,9.7947692874,-0.0303649902,0.0001410590,-0.1745551215,0.0001085069
557668.5000229609,0.0297546387,9.8007202152,-0.0065612793,-0.0012152778,-0.1745334201,0.0000976562
557668.5100229610,0.0289916992,9.7958374027,-0.0273132324,-0.0010959201,-0.1744791667,0.0000976562
557668.5200229610,0.0271606445,9.7975158695,-0.0202941895,0.0000976562,-0.1745442708,0.0001085069
557668.5300229610,0.0279235840,9.7999572757,-0.0088500977,-0.0018012153,-0.1744791667,0.0000976562
557668.5400229610,0.0297546387,9.7947692874,-0.0318908691,-0.0002170139,-0.1744900174,0.0001085069
557668.5500229610,0.0294494629,9.7996520999,-0.0100708008,-0.0005967882,-0.1744574653,0.0000976562
557668.5600229610,0.0276184082,9.7982788089,-0.0196838379,-0.0016276042,-0.1744357639,0.0000976562
557668.5700229610,0.0276184082,9.7961425784,-0.0283813477,0.0002387153,-0.1745442708,0.0001085069
557668.5800229610,0.0279235840,9.8004150394,-0.0062561035,-0.0014539931,-0.1744249132,0.0001302083
557668.5900229610,0.0303649902,9.7962951663,-0.0286865234,-0.0008680556,-0.1744466146,0.0001085069
557668.6000229610,0.0288391113,9.7978210452,-0.0181579590,0.0000108507,-0.1745985243,0.0000868056
557668.6100229610,0.0280761719,9.7991943363,-0.0122070313,-0.0018446181,-0.1744466146,0.0000868056
557668.6200229611,0.0280761719,9.7950744632,-0.0320434570,-0.0000759549,-0.1745876736,0.0001085069
557668.6300229609,0.0286865234,9.8002624515,-0.0085449219,-0.0008463542,-0.1745334201,0.0001085069
557668.6400229610,0.0296020508,9.7975158695,-0.0212097168,-0.0015082465,-0.1744791667,0.0000868056
557668.6500229610,0.0282287598,9.7967529300,-0.0267028809,0.0002604167,-0.1745551215,0.0001085069
557668.6600229610,0.0276184082,9.8005676273,-0.0064086914,-0.0015842014,-0.1745117187,0.0001085069
557668.6700229610,0.0283813477,9.7952270511,-0.0305175781,-0.0006618924,-0.1744683160,0.0000868056
557668.6800229610,0.0291442871,9.7988891605,-0.0160217285,-0.0001844618,-0.1744249132,0.0001193576
557668.6900229610,0.0283813477,9.7987365726,-0.0144958496,-0.0018229167,-0.1744900174,0.0000976562
557668.7000229610,0.0276184082,9.7950744632,-0.0312805176,0.0000651042,-0.1744466146,0.0001193576
557668.7100229610,0.0279235840,9.7999572757,-0.0064086914,-0.0010199653,-0.1744140625,0.0001193576
557668.7200229610,0.0302124023,9.7972106937,-0.0236511230,-0.0012912326,-0.1743706597,0.0000976562
557668.7300229620,0.0289916992,9.7967529300,-0.0239562988,0.0002061632,-0.1746093750,0.0000976562
557668.7400229620,0.0271606445,9.8001098636,-0.0093078613,-0.0017144097,-0.1745117187,0.0000759549
557668.7500229620,0.0283813477,9.7947692874,-0.0314331055,-0.0003906250,-0.1744466146,0.0000976562
557668.7600229620,0.0291442871,9.7994995120,-0.0102233887,-0.0003906250,-0.1745008680,0.0000976562
557668.7700229620,0.0291442871,9.7985839847,-0.0166320801,-0.0017686632,-0.1745659722,0.0000976562
557668.7800229620,0.0277709961,9.7952270511,-0.0311279297,0.0002495660,-0.1746310764,0.0001193576
557668.7900229620,0.0279235840,9.8008728031,-0.0059509277,-0.0012695312,-0.1744791667,0.0001193576
557668.8000229620,0.0285339355,9.7966003421,-0.0257873535,-0.0011176215,-0.1744466146,0.0000868056
557668.8100229620,0.0291442871,9.7975158695,-0.0218200684,0.0001410590,-0.1745876736,0.0001193576
557668.8200229621,0.0289916992,9.8007202152,-0.0106811523,-0.0017578125,-0.1744791667,0.0000759549
557668.8300229619,0.0273132324,9.7949218753,-0.0317382813,-0.0002821181,-0.1744900174,0.0001085069
557668.8400229620,0.0279235840,9.7998046878,-0.0088500977,-0.0005859375,-0.1744683160,0.0001193576
557668.8500229620,0.0300598145,9.7982788089,-0.0193786621,-0.0016493056,-0.1744466146,0.0000868056
557668.8600229620,0.0297546387,9.7961425784,-0.0299072266,0.0002712674,-0.1745876736,0.0001085069
557668.8700229620,0.0271606445,9.8008728031,-0.0057983398,-0.0014648437,-0.1744900174,0.0000976562
557668.8800229620,0.0283813477,9.7956848148,-0.0274658203,-0.0009223090,-0.1745551215,0.0001085069
557668.8900229620,0.0283813477,9.7979736331,-0.0178527832,0.0000108507,-0.1745985243,0.0000868056
557668.9000229620,0.0286865234,9.7999572757,-0.0115966797,-0.0018446181,-0.1744357639,0.0001085069
557668.9100229620,0.0282287598,9.7950744632,-0.0320434570,-0.0000759549,-0.1744900174,0.0001085069
557668.9200229620,0.0276184082,9.7999572757,-0.0077819824,-0.0007812500,-0.1745225694,0.0001193576
557668.9300229620,0.0292968750,9.7970581058,-0.0213623047,-0.0014648437,-0.1743815104,0.0000976562
557668.9400229621,0.0289916992,9.7970581058,-0.0245666504,0.0002061632,-0.1744683160,0.0000976562
557668.9500229619,0.0283813477,9.8001098636,-0.0077819824,-0.0016276042,-0.1744466146,0.0000759549
557668.9600229620,0.0282287598,9.7952270511,-0.0302124023,-0.0005316840,-0.1744249132,0.0001193576
557668.9700229620,0.0289916992,9.7988891605,-0.0128173828,-0.0003580729,-0.1745117187,0.0001085069
557668.9800229620,0.0294494629,9.7990417484,-0.0167846680,-0.0017252604,-0.1743598090,0.0001085069
557668.9900229620,0.0291442871,9.7950744632,-0.0302124023,0.0001627604,-0.1745225694,0.0000976562
557669.0000229620,0.0279235840,9.8008728031,-0.0064086914,-0.0012478299,-0.1745442708,0.0000868056
557669.0100229620,0.0285339355,9.7961425784,-0.0265502930,-0.0010091146,-0.1747178819,0.0001193576
557669.0200229620,0.0294494629,9.7975158695,-0.0192260742,0.0000325521,-0.1745008680,0.0000976562
557669.0300229620,0.0286865234,9.7998046878,-0.0115966797,-0.0018446181,-0.1745442708,0.0000976562
557669.0400229620,0.0285339355,9.7947692874,-0.0317382813,-0.0001193576,-0.1744900174,0.0001085069
557669.0500229620,0.0270080566,9.7996520999,-0.0085449219,-0.0006944444,-0.1745225694,0.0001085069
557669.0600229620,0.0286865234,9.7978210452,-0.0216674805,-0.0015407986,-0.1745551215,0.0001085069
557669.0700229621,0.0296020508,9.7961425784,-0.0268554688,0.0002387153,-0.1745442708,0.0000868056
557669.0800229619,0.0283813477,9.8008728031,-0.0053405762,-0.0015733507,-0.1743923611,0.0000868056
557669.0900229620,0.0279235840,9.7955322269,-0.0297546387,-0.0006727431,-0.1745117187,0.0001193576
557669.1000229620,0.0282287598,9.7985839847,-0.0151062012,-0.0001627604,-0.1745117187,0.0001085069
557669.1100229620,0.0289916992,9.7994995120,-0.0138854980,-0.0018337674,-0.1743598090,0.0000976562
557669.1200229620,0.0294494629,9.7949218753,-0.0317382813,0.0000976562,-0.1745334201,0.0000976562
557669.1300229620,0.0263977051,9.8007202152,-0.0065612793,-0.0010199653,-0.1745008680,0.0000976562
557669.1400229620,0.0285339355,9.7966003421,-0.0233459473,-0.0012912326,-0.1744357639,0.0000868056
557669.1500229620,0.0296020508,9.7966003421,-0.0225830078,0.0002170139,-0.1746310764,0.0001085069
557669.1600229620,0.0294494629,9.7998046878,-0.0085449219,-0.0017578125,-0.1743923611,0.0001085069
557669.1700229620,0.0285339355,9.7955322269,-0.0331115723,-0.0004231771,-0.1745334201,0.0000976562
557669.1800229620,0.0267028809,9.7988891605,-0.0111389160,-0.0003797743,-0.1745008680,0.0001193576
557669.1900229621,0.0291442871,9.7984313968,-0.0169372559,-0.0016818576,-0.1745334201,0.0001085069
557669.2000229619,0.0306701660,9.7953796390,-0.0294494629,0.0002170139,-0.1745768229,0.0000976562
557669.2100229620,0.0280761719,9.8004150394,-0.0064086914,-0.0013780382,-0.1745225694,0.0000868056
557669.2200229620,0.0270080566,9.7962951663,-0.0271606445,-0.0009223090,-0.1745442708,0.0001193576
557669.2300229620,0.0276184082,9.7979736331,-0.0184631348,-0.0000434028,-0.1745117187,0.0001085069
557669.2400229620,0.0300598145,9.7994995120,-0.0128173828,-0.0017686632,-0.1744140625,0.0000868056
557669.2500229620,0.0292968750,9.7949218753,-0.0299072266,-0.0000108507,-0.1744900174,0.0001085069
557669.2600229620,0.0276184082,9.7999572757,-0.0057983398,-0.0009548611,-0.1744357639,0.0000868056
557669.2700229620,0.0276184082,9.7964477542,-0.0231933594,-0.0012912326,-0.1744357639,0.0001302083
557669.2800229620,0.0308227539,9.7967529300,-0.0242614746,0.0001519097,-0.1744900174,0.0000976562
557669.2900229620,0.0291442871,9.7998046878,-0.0083923340,-0.0017252604,-0.1745117187,0.0000868056
557669.3000229620,0.0280761719,9.7958374027,-0.0297546387,-0.0004557292,-0.1744357639,0.0001193576
557669.3100229620,0.0265502930,9.7987365726,-0.0103759766,-0.0004123264,-0.1745442708,0.0001193576
557669.3200229621,0.0292968750,9.7981262210,-0.0187683105,-0.0016493056,-0.1745334201,0.0000976562
557669.3300229619,0.0305175781,9.7953796390,-0.0285339355,0.0001844618,-0.1746093750,0.0000976562
557669.3400229620,0.0279235840,9.8008728031,-0.0044250488,-0.0013780382,-0.1745334201,0.0000868056
557669.3500229620,0.0260925293,9.7959899906,-0.0280761719,-0.0008789062,-0.1745442708,0.0001193576
557669.3600229620,0.0294494629,9.7982788089,-0.0192260742,-0.0000108507,-0.1745334201,0.0001302083
557669.3700229620,0.0317382813,9.7993469241,-0.0114440918,-0.0018120660,-0.1744357639,0.0000868056
557669.3800229620,0.0280761719,9.7955322269,-0.0300598145,-0.0000651042,-0.1745442708,0.0000868056
557669.3900229620,0.0250244141,9.8001098636,-0.0067138672,-0.0007812500,-0.1745117187,0.0001410590
557669.4000229620,0.0285339355,9.7973632816,-0.0244140625,-0.0014105903,-0.1745008680,0.0001085069
557669.4100229620,0.0311279297,9.7964477542,-0.0265502930,0.0002170139,-0.1745334201,0.0001085069
557669.4200229620,0.0291442871,9.8005676273,-0.0053405762,-0.0016493056,-0.1745225694,0.0000759549
557669.4300229620,0.0259399414,9.7955322269,-0.0292968750,-0.0005533854,-0.1744466146,0.0001085069
557669.4400229621,0.0279235840,9.7984313968,-0.0151062012,-0.0002495660,-0.1744574653,0.0001302083
557669.4500229619,0.0305175781,9.7996520999,-0.0160217285,-0.0018120660,-0.1745334201,0.0000976562
557669.4600229620,0.0299072266,9.7953796390,-0.0291442871,0.0001193576,-0.1744900174,0.0000976562
557669.4700229620,0.0270080566,9.8002624515,-0.0054931641,-0.0010525174,-0.1745117187,0.0000868056
557669.4800229620,0.0277709961,9.7970581058,-0.0267028809,-0.0012261285,-0.1745768229,0.0000976562
557669.4900229620,0.0286865234,9.7970581058,-0.0225830078,0.0001410590,-0.1744574653,0.0001085069
557669.5000229620,0.0289916992,9.8005676273,-0.0053405762,-0.0017686632,-0.1744683160,0.0000976562
557669.5100229620,0.0286865234,9.7952270511,-0.0305175781,-0.0002929687,-0.1745008680,0.0001085069
557669.5200229620,0.0282287598,9.7996520999,-0.0125122070,-0.0004665799,-0.1743815104,0.0001302083
557669.5300229620,0.0285339355,9.7981262210,-0.0193786621,-0.0016818576,-0.1745117187,0.0001085069
557669.5400229620,0.0283813477,9.7959899906,-0.0282287598,0.0001844618,-0.1745551215,0.0001085069
557669.5500229620,0.0289916992,9.8008728031,-0.0048828125,-0.0013780382,-0.1745659722,0.0000976562
557669.5600229620,0.0294494629,9.7955322269,-0.0283813477,-0.0008789062,-0.1745659722,0.0001085069
557669.5700229621,0.0274658203,9.7979736331,-0.0186157227,0.0000000000,-0.1745225694,0.0001085069
557669.5800229619,0.0265502930,9.7999572757,-0.0117492676,-0.0018229167,-0.1745442708,0.0000976562
557669.5900229620,0.0294494629,9.7946166995,-0.0303649902,0.0000000000,-0.1745551215,0.0001085069
557669.6000229620,0.0297546387,9.8007202152,-0.0073242188,-0.0008355035,-0.1745008680,0.0000868056
557669.6100229620,0.0276184082,9.7973632816,-0.0230407715,-0.0014539931,-0.1745225694,0.0000976562
557669.6200229620,0.0273132324,9.7962951663,-0.0256347656,0.0002712674,-0.1745442708,0.0001302083
557669.6300229620,0.0291442871,9.8007202152,-0.0057983398,-0.0016818576,-0.1744357639,0.0000976562
557669.6400229620,0.0294494629,9.7949218753,-0.0296020508,-0.0005316840,-0.1744683160,0.0001193576
557669.6500229620,0.0279235840,9.7990417484,-0.0154113770,-0.0001844618,-0.1745334201,0.0000976562
557669.6600229620,0.0274658203,9.7994995120,-0.0148010254,-0.0018446181,-0.1744140625,0.0001085069
557669.6700229620,0.0277709961,9.7952270511,-0.0297546387,0.0001193576,-0.1744900174,0.0001302083
557669.6800229620,0.0291442871,9.8004150394,-0.0041198730,-0.0010525174,-0.1744574653,0.0001302083
557669.6900229621,0.0306701660,9.7964477542,-0.0250244141,-0.0012695312,-0.1744791667,0.0000976562
557669.7000229619,0.0285339355,9.7972106937,-0.0228881836,0.0001844618,-0.1745117187,0.0001193576
557669.7100229620,0.0268554688,9.8001098636,-0.0065612793,-0.0017469618,-0.1744466146,0.0001410590
557669.7200229620,0.0289916992,9.7947692874,-0.0315856934,-0.0003363715,-0.1745117187,0.0001193576
557669.7300229620,0.0297546387,9.7994995120,-0.0123596191,-0.0003797743,-0.1745551215,0.0001085069
557669.7400229620,0.0296020508,9.7991943363,-0.0163269043,-0.0017578125,-0.1744791667,0.0000976562
557669.7500229620,0.0276184082,9.7952270511,-0.0291442871,0.0001736111,-0.1746093750,0.0001193576
557669.7600229620,0.0279235840,9.8007202152,-0.0061035156,-0.0012803819,-0.1744791667,0.0000976562
557669.7700229620,0.0282287598,9.7962951663,-0.0273132324,-0.0010416667,-0.1745008680,0.0001193576
557669.7800229620,0.0283813477,9.7982788089,-0.0190734863,0.0000542535,-0.1744574653,0.0001085069
557669.7900229620,0.0285339355,9.7999572757,-0.0099182129,-0.0017578125,-0.1744466146,0.0000976562
557669.8000229630,0.0280761719,9.7959899906,-0.0318908691,-0.0001193576,-0.1745008680,0.0001193576
557669.8100229630,0.0282287598,9.7999572757,-0.0080871582,-0.0007161458,-0.1744249132,0.0001085069
557669.8200229630,0.0285339355,9.7979736331,-0.0202941895,-0.0015733507,-0.1743706597,0.0001085069
557669.8300229630,0.0299072266,9.7962951663,-0.0270080566,0.0002604167,-0.1745768229,0.0001193576
557669.8400229630,0.0286865234,9.8008728031,-0.0059509277,-0.0015516493,-0.1744791667,0.0000976562
557669.8500229630,0.0288391113,9.7956848148,-0.0306701660,-0.0007052951,-0.1745225694,0.0001085069
557669.8600229630,0.0271606445,9.7985839847,-0.0141906738,-0.0000868056,-0.1745334201,0.0001193576
557669.8700229630,0.0282287598,9.7996520999,-0.0125122070,-0.0018337674,-0.1744574653,0.0000868056
557669.8800229630,0.0296020508,9.7955322269,-0.0311279297,0.0000434028,-0.1745551215,0.0001085069
557669.8900229631,0.0279235840,9.8005676273,-0.0056457520,-0.0009765625,-0.1744683160,0.0001193576
557669.9000229629,0.0279235840,9.7967529300,-0.0238037109,-0.0013780382,-0.1745008680,0.0001085069
557669.9100229630,0.0285339355,9.7970581058,-0.0244140625,0.0002604167,-0.1745334201,0.0001302083
557669.9200229630,0.0291442871,9.8005676273,-0.0068664551,-0.0017035590,-0.1743706597,0.0000976562
557669.9300229630,0.0289916992,9.7944641116,-0.0305175781,-0.0004557292,-0.1744791667,0.0000976562
557669.9400229630,0.0273132324,9.7988891605,-0.0115966797,-0.0003255208,-0.1745008680,0.0001085069
557669.9500229630,0.0285339355,9.7988891605,-0.0167846680,-0.0017469618,-0.1743923611,0.0001085069
557669.9600229630,0.0285339355,9.7966003421,-0.0299072266,0.0001627604,-0.1744900174,0.0001193576
557669.9700229630,0.0289916992,9.8005676273,-0.0051879883,-0.0012261285,-0.1744791667,0.0001193576
557669.9800229630,0.0292968750,9.7961425784,-0.0262451172,-0.0010525174,-0.1744683160,0.0001193576
557669.9900229630,0.0277709961,9.7973632816,-0.0202941895,0.0001302083,-0.1744683160,0.0001193576
557670.0000229630,0.0282287598,9.8002624515,-0.0099182129,-0.0018120660,-0.1745117187,0.0000976562
557670.0100229630,0.0292968750,9.7956848148,-0.0314331055,-0.0001844618,-0.1749023437,0.0001193576
557670.0200229631,0.0289916992,9.8001098636,-0.0074768066,-0.0007052951,-0.1745442708,0.0001085069
557670.0300229630,0.0286865234,9.7982788089,-0.0205993652,-0.0015082465,-0.1745442708,0.0001302083
557670.0400229630,0.0277709961,9.7964477542,-0.0271606445,0.0002387153,-0.1744683160,0.0001085069
557670.0500229630,0.0285339355,9.8004150394,-0.0064086914,-0.0015625000,-0.1745334201,0.0001302083
557670.0600229630,0.0291442871,9.7953796390,-0.0277709961,-0.0006727431,-0.1744249132,0.0001410590
557670.0700229630,0.0291442871,9.7982788089,-0.0140380859,-0.0001085069,-0.1744466146,0.0001085069
557670.0800229630,0.0288391113,9.7993469241,-0.0146484375,-0.0018337674,-0.1744357639,0.0000868056
557670.0900229630,0.0274658203,9.7950744632,-0.0315856934,0.0000542535,-0.1744249132,0.0001302083
557670.1000229630,0.0286865234,9.8002624515,-0.0051879883,-0.0010525174,-0.1745117187,0.0001193576
557670.1100229630,0.0299072266,9.7969055179,-0.0224304199,-0.0012261285,-0.1744466146,0.0001193576
557670.1200229630,0.0292968750,9.7966003421,-0.0230407715,0.0002170139,-0.1744900174,0.0000976562
557670.1300229630,0.0271606445,9.7998046878,-0.0102233887,-0.0017361111,-0.1745442708,0.0001085069
557670.1400229631,0.0289916992,9.7950744632,-0.0308227539,-0.0003472222,-0.1744683160,0.0001085069
557670.1500229629,0.0291442871,9.7994995120,-0.0082397461,-0.0005425347,-0.1745225694,0.0001193576
557670.1600229630,0.0292968750,9.7982788089,-0.0193786621,-0.0015733507,-0.1744466146,0.0001085069
557670.1700229630,0.0283813477,9.7956848148,-0.0280761719,0.0001844618,-0.1745008680,0.0001193576
557670.1800229630,0.0270080566,9.8008728031,-0.0045776367,-0.0014648437,-0.1744900174,0.0001085069
557670.1900229630,0.0289916992,9.7953796390,-0.0265502930,-0.0007703993,-0.1745225694,0.0001193576
557670.2000229630,0.0299072266,9.7978210452,-0.0160217285,-0.0000325521,-0.1745008680,0.0001085069
557670.2100229630,0.0277709961,9.7994995120,-0.0135803223,-0.0018012153,-0.1744574653,0.0000976562
557670.2200229630,0.0279235840,9.7947692874,-0.0309753418,0.0000000000,-0.1744357639,0.0001193576
557670.2300229630,0.0276184082,9.8008728031,-0.0050354004,-0.0010091146,-0.1745008680,0.0001302083
557670.2400229630,0.0297546387,9.7970581058,-0.0215148926,-0.0013020833,-0.1744574653,0.0001302083
557670.2500229630,0.0297546387,9.7961425784,-0.0259399414,0.0002495660,-0.1745334201,0.0000976562
557670.2600229630,0.0268554688,9.7999572757,-0.0079345703,-0.0017144097,-0.1744683160,0.0001302083
557670.2700229631,0.0288391113,9.7950744632,-0.0300598145,-0.0004340278,-0.1745442708,0.0001193576
557670.2800229630,0.0303649902,9.7991943363,-0.0106811523,-0.0003255208,-0.1745334201,0.0001193576
557670.2900229630,0.0294494629,9.7991943363,-0.0160217285,-0.0018012153,-0.1744249132,0.0001085069
557670.3000229630,0.0277709961,9.7953796390,-0.0303649902,0.0002170139,-0.1746419271,0.0001085069
557670.3100229630,0.0276184082,9.8002624515,-0.0036621094,-0.0012261285,-0.1745117187,0.0001302083
557670.3200229630,0.0302124023,9.7966003421,-0.0267028809,-0.0010416667,-0.1745659722,0.0000976562
557670.3300229630,0.0300598145,9.7972106937,-0.0209045410,0.0001519097,-0.1745334201,0.0001085069
557670.3400229630,0.0292968750,9.8002624515,-0.0079345703,-0.0018229167,-0.1744574653,0.0000976562
557670.3500229630,0.0270080566,9.7947692874,-0.0320434570,-0.0001736111,-0.1744683160,0.0001193576
557670.3600229630,0.0283813477,9.7998046878,-0.0082397461,-0.0006184896,-0.1743706597,0.0001302083
557670.3700229630,0.0300598145,9.7978210452,-0.0190734863,-0.0015842014,-0.1744683160,0.0000976562
557670.3800229630,0.0292968750,9.7964477542,-0.0273132324,0.0002604167,-0.1744249132,0.0001193576
557670.3900229631,0.0276184082,9.8001098636,-0.0057983398,-0.0015082465,-0.1744791667,0.0000976562
557670.4000229629,0.0274658203,9.7952270511,-0.0288391113,-0.0007269965,-0.1745117187,0.0001085069
557670.4100229630,0.0296020508,9.7984313968,-0.0151062012,-0.0000976562,-0.1745225694,0.0001193576
557670.4200229630,0.0303649902,9.7990417484,-0.0123596191,-0.0018337674,-0.1744791667,0.0001085069
557670.4300229630,0.0283813477,9.7949218753,-0.0299072266,0.0000000000,-0.1745117187,0.0001193576
557670.4400229630,0.0270080566,9.8004150394,-0.0054931641,-0.0009331597,-0.1745334201,0.0001193576
557670.4500229630,0.0292968750,9.7969055179,-0.0242614746,-0.0013129340,-0.1745225694,0.0001302083
557670.4600229630,0.0299072266,9.7967529300,-0.0253295898,0.0002170139,-0.1745442708,0.0001085069
557670.4700229630,0.0285339355,9.7994995120,-0.0056457520,-0.0016710069,-0.1745334201,0.0001085069
557670.4800229630,0.0270080566,9.7952270511,-0.0289916992,-0.0004557292,-0.1744357639,0.0001193576
557670.4900229630,0.0292968750,9.7984313968,-0.0114440918,-0.0003255208,-0.1744357639,0.0001085069
557670.5000229630,0.0300598145,9.7985839847,-0.0172424316,-0.0017903646,-0.1743598090,0.0001085069
557670.5100229630,0.0300598145,9.7955322269,-0.0292968750,0.0001844618,-0.1744683160,0.0001085069
557670.5200229631,0.0268554688,9.8004150394,-0.0042724609,-0.0012478299,-0.1745225694,0.0001302083
557670.5300229630,0.0283813477,9.7961425784,-0.0262451172,-0.0009765625,-0.1744466146,0.0001193576
557670.5400229630,0.0305175781,9.7972106937,-0.0198364258,0.0000434028,-0.1745551215,0.0001085069
557670.5500229630,0.0292968750,9.7998046878,-0.0106811523,-0.0018120660,-0.1744683160,0.0000976562
557670.5600229630,0.0279235840,9.7952270511,-0.0285339355,-0.0001085069,-0.1745117187,0.0001085069
557670.5700229630,0.0270080566,9.8001098636,-0.0079345703,-0.0007812500,-0.1745442708,0.0001302083
557670.5800229630,0.0299072266,9.7973632816,-0.0233459473,-0.0013888889,-0.1744791667,0.0000976562
557670.5900229630,0.0294494629,9.7966003421,-0.0236511230,0.0001844618,-0.1745985243,0.0001085069
557670.6000229630,0.0288391113,9.8005676273,-0.0039672852,-0.0016384549,-0.1745225694,0.0000976562
557670.6100229630,0.0271606445,9.7955322269,-0.0297546387,-0.0004557292,-0.1745008680,0.0000976562
557670.6200229630,0.0282287598,9.7981262210,-0.0138854980,-0.0003689236,-0.1745225694,0.0001302083
557670.6300229630,0.0302124023,9.7984313968,-0.0167846680,-0.0017361111,-0.1744466146,0.0001085069
557670.6400229631,0.0297546387,9.7958374027,-0.0256347656,0.0001736111,-0.1744900174,0.0000976562
557670.6500229629,0.0282287598,9.8002624515,-0.0050354004,-0.0012261285,-0.1744791667,0.0001193576
557670.6600229630,0.0280761719,9.7955322269,-0.0274658203,-0.0009548611,-0.1745008680,0.0001193576
557670.6700229630,0.0286865234,9.7976684574,-0.0196838379,0.0000108507,-0.1745008680,0.0001302083
557670.6800229630,0.0302124023,9.7994995120,-0.0085449219,-0.0018446181,-0.1744140625,0.0000976562
557670.6900229630,0.0285339355,9.7950744632,-0.0303649902,-0.0000759549,-0.1746093750,0.0001193576
557670.7000229630,0.0282287598,9.7993469241,-0.0090026855,-0.0007269965,-0.1744357639,0.0001193576
557670.7100229630,0.0292968750,9.7973632816,-0.0212097168,-0.0015082465,-0.1744900174,0.0001085069
557670.7200229630,0.0286865234,9.7955322269,-0.0247192383,0.0002278646,-0.1745551215,0.0001193576
557670.7300229630,0.0296020508,9.8008728031,-0.0047302246,-0.0015299479,-0.1744574653,0.0000976562
557670.7400229630,0.0282287598,9.7958374027,-0.0303649902,-0.0006293403,-0.1745659722,0.0001302083
557670.7500229630,0.0271606445,9.7982788089,-0.0154113770,-0.0001953125,-0.1745008680,0.0001193576
557670.7600229630,0.0294494629,9.7988891605,-0.0125122070,-0.0018229167,-0.1744791667,0.0001085069
557670.7700229631,0.0292968750,9.7952270511,-0.0289916992,0.0001410590,-0.1744140625,0.0001302083
557670.7800229630,0.0273132324,9.8002624515,-0.0064086914,-0.0010959201,-0.1744357639,0.0000976562
557670.7900229630,0.0280761719,9.7964477542,-0.0248718262,-0.0011501736,-0.1743706597,0.0001193576
557670.8000229630,0.0288391113,9.7973632816,-0.0204467773,0.0001519097,-0.1744574653,0.0001193576
557670.8100229630,0.0297546387,9.7999572757,-0.0082397461,-0.0017469618,-0.1744574653,0.0000976562
557670.8200229630,0.0297546387,9.7944641116,-0.0309753418,-0.0002495660,-0.1745117187,0.0001193576
557670.8300229630,0.0283813477,9.7990417484,-0.0093078613,-0.0005750868,-0.1744791667,0.0001302083
557670.8400229630,0.0291442871,9.7982788089,-0.0177001953,-0.0015950521,-0.1744683160,0.0001085069
557670.8500229630,0.0291442871,9.7955322269,-0.0262451172,0.0002604167,-0.1745442708,0.0001085069
557670.8600229630,0.0292968750,9.8005676273,-0.0054931641,-0.0014431424,-0.1745117187,0.0000868056
557670.8700229630,0.0282287598,9.7955322269,-0.0297546387,-0.0007703993,-0.1745985243,0.0001193576
557670.8800229640,0.0280761719,9.7981262210,-0.0152587891,-0.0001193576,-0.1745985243,0.0001302083
557670.8900229640,0.0286865234,9.7987365726,-0.0115966797,-0.0018012153,-0.1745551215,0.0001085069
557670.9000229640,0.0299072266,9.7953796390,-0.0300598145,0.0000542535,-0.1745117187,0.0001302083
557670.9100229640,0.0294494629,9.8001098636,-0.0056457520,-0.0009765625,-0.1744574653,0.0001193576
557670.9200229640,0.0280761719,9.7975158695,-0.0238037109,-0.0013129340,-0.1745117187,0.0000976562
557670.9300229640,0.0283813477,9.7972106937,-0.0227355957,0.0002387153,-0.1744466146,0.0001193576
557670.9400229640,0.0291442871,9.8007202152,-0.0062561035,-0.0016601562,-0.1744683160,0.0001085069
557670.9500229640,0.0296020508,9.7953796390,-0.0309753418,-0.0004123264,-0.1745334201,0.0001193576
557670.9600229640,0.0285339355,9.7988891605,-0.0112915039,-0.0004231771,-0.1745117187,0.0001085069
557670.9700229639,0.0282287598,9.7981262210,-0.0157165527,-0.0017035590,-0.1744249132,0.0001085069
557670.9800229640,0.0279235840,9.7952270511,-0.0276184082,0.0001736111,-0.1745225694,0.0001302083
557670.9900229640,0.0300598145,9.8002624515,-0.0054931641,-0.0012803819,-0.1744249132,0.0000976562
557671.0000229640,0.0297546387,9.7959899906,-0.0277709961,-0.0008680556,-0.1744249132,0.0000868056
557671.0100229640,0.0274658203,9.7976684574,-0.0172424316,-0.0000217014,-0.1748914930,0.0001302083
557671.0200229640,0.0283813477,9.7996520999,-0.0096130371,-0.0018229167,-0.1744791667,0.0001193576
557671.0300229640,0.0292968750,9.7949218753,-0.0302124023,-0.0000325521,-0.1745117187,0.0001302083
557671.0400229640,0.0303649902,9.7996520999,-0.0071716309,-0.0008463542,-0.1745334201,0.0001193576
557671.0500229640,0.0296020508,9.7976684574,-0.0218200684,-0.0013888889,-0.1744249132,0.0000868056
557671.0600229640,0.0267028809,9.7969055179,-0.0234985352,0.0002929687,-0.1745117187,0.0001085069
557671.0700229640,0.0285339355,9.8002624515,-0.0051879883,-0.0015950521,-0.1743706597,0.0001085069
557671.0800229640,0.0302124023,9.7961425784,-0.0306701660,-0.0005967882,-0.1744357639,0.0001193576
557671.0900229641,0.0296020508,9.7988891605,-0.0140380859,-0.0002170139,-0.1745225694,0.0001302083
557671.1000229639,0.0277709961,9.7993469241,-0.0137329102,-0.0018446181,-0.1744357639,0.0001085069
557671.1100229640,0.0279235840,9.7950744632,-0.0302124023,0.0001627604,-0.1745334201,0.0001193576
557671.1200229640,0.0299072266,9.8004150394,-0.0059509277,-0.0009657118,-0.1745659722,0.0000976562
557671.1300229640,0.0308227539,9.7969055179,-0.0241088867,-0.0013563368,-0.1744466146,0.0000868056
557671.1400229640,0.0279235840,9.7967529300,-0.0225830078,0.0002495660,-0.1745768229,0.0001193576
557671.1500229640,0.0273132324,9.8001098636,-0.0038146973,-0.0017035590,-0.1744900174,0.0001085069
557671.1600229640,0.0296020508,9.7949218753,-0.0308227539,-0.0004448785,-0.1744574653,0.0001410590
557671.1700229640,0.0296020508,9.7982788089,-0.0128173828,-0.0002929687,-0.1745117187,0.0001302083
557671.1800229640,0.0294494629,9.7988891605,-0.0140380859,-0.0017578125,-0.1743706597,0.0001302083
557671.1900229640,0.0282287598,9.7953796390,-0.0285339355,0.0001736111,-0.1744249132,0.0001085069
557671.2000229640,0.0282287598,9.8004150394,-0.0061035156,-0.0011284722,-0.1744357639,0.0001193576
557671.2100229640,0.0303649902,9.7967529300,-0.0256347656,-0.0011610243,-0.1743923611,0.0001193576
557671.2200229639,0.0303649902,9.7966003421,-0.0196838379,0.0001519097,-0.1745008680,0.0001085069
557671.2300229640,0.0291442871,9.7996520999,-0.0080871582,-0.0017469618,-0.1744357639,0.0001085069
557671.2400229640,0.0280761719,9.7949218753,-0.0312805176,-0.0001953125,-0.1745117187,0.0001085069
557671.2500229640,0.0286865234,9.7991943363,-0.0097656250,-0.0005859375,-0.1745442708,0.0001193576
557671.2600229640,0.0297546387,9.7979736331,-0.0183105469,-0.0015842014,-0.1744574653,0.0000976562
557671.2700229640,0.0292968750,9.7961425784,-0.0248718262,0.0002604167,-0.1745442708,0.0001193576
557671.2800229640,0.0282287598,9.8001098636,-0.0053405762,-0.0014648437,-0.1744791667,0.0001085069
557671.2900229640,0.0279235840,9.7952270511,-0.0299072266,-0.0007921007,-0.1745985243,0.0001302083
557671.3000229640,0.0294494629,9.7979736331,-0.0158691406,-0.0001085069,-0.1745442708,0.0001085069
557671.3100229640,0.0300598145,9.7996520999,-0.0106811523,-0.0017686632,-0.1744791667,0.0000976562
557671.3200229640,0.0283813477,9.7947692874,-0.0302124023,0.0000651042,-0.1745117187,0.0000976562
557671.3300229640,0.0271606445,9.7999572757,-0.0065612793,-0.0009006076,-0.1744574653,0.0001302083
557671.3400229641,0.0297546387,9.7961425784,-0.0207519531,-0.0014214410,-0.1744249132,0.0001302083
557671.3500229639,0.0297546387,9.7962951663,-0.0236511230,0.0002929687,-0.1745008680,0.0001410590
557671.3600229640,0.0296020508,9.8013305667,-0.0054931641,-0.0016493056,-0.1744357639,0.0000976562
557671.3700229640,0.0279235840,9.7947692874,-0.0311279297,-0.0005642361,-0.1745551215,0.0001193576
557671.3800229640,0.0274658203,9.7990417484,-0.0126647949,-0.0001627604,-0.1744900174,0.0001193576
557671.3900229640,0.0296020508,9.7988891605,-0.0119018555,-0.0017903646,-0.1744140625,0.0001085069
557671.4000229640,0.0294494629,9.7946166995,-0.0306701660,0.0001844618,-0.1745551215,0.0001193576
557671.4100229640,0.0285339355,9.8010253909,-0.0061035156,-0.0010525174,-0.1747721354,0.0001193576
557671.4200229640,0.0286865234,9.7966003421,-0.0227355957,-0.0013237847,-0.1745117187,0.0001410590
557671.4300229640,0.0286865234,9.7966003421,-0.0233459473,0.0002929687,-0.1745117187,0.0001193576
557671.4400229640,0.0291442871,9.8010253909,-0.0054931641,-0.0017144097,-0.1744140625,0.0001085069
557671.4500229640,0.0300598145,9.7952270511,-0.0312805176,-0.0004448785,-0.1744574653,0.0001302083
557671.4600229640,0.0279235840,9.7990417484,-0.0117492676,-0.0002387153,-0.1744466146,0.0001193576
557671.4700229639,0.0280761719,9.7991943363,-0.0122070313,-0.0018337674,-0.1744466146,0.0001085069
557671.4800229640,0.0303649902,9.7950744632,-0.0309753418,0.0001844618,-0.1744357639,0.0001302083
557671.4900229640,0.0286865234,9.8007202152,-0.0050354004,-0.0010525174,-0.1745225694,0.0001193576
557671.5000229640,0.0291442871,9.7973632816,-0.0242614746,-0.0013020833,-0.1744140625,0.0000976562
557671.5100229640,0.0286865234,9.7967529300,-0.0218200684,0.0002604167,-0.1745551215,0.0001302083
557671.5200229640,0.0282287598,9.7998046878,-0.0054931641,-0.0016818576,-0.1744574653,0.0001085069
557671.5300229640,0.0306701660,9.7953796390,-0.0314331055,-0.0003797743,-0.1744466146,0.0001085069
557671.5400229640,0.0288391113,9.7984313968,-0.0112915039,-0.0003797743,-0.1745225694,0.0001085069
557671.5500229640,0.0276184082,9.7982788089,-0.0154113770,-0.0017252604,-0.1744900174,0.0001302083
557671.5600229640,0.0286865234,9.7953796390,-0.0265502930,0.0002061632,-0.1745768229,0.0001302083
557671.5700229640,0.0294494629,9.8004150394,-0.0056457520,-0.0012695312,-0.1745985243,0.0001193576
557671.5800229640,0.0296020508,9.7958374027,-0.0267028809,-0.0009548611,-0.1745008680,0.0001193576
557671.5900229641,0.0271606445,9.7978210452,-0.0169372559,0.0000325521,-0.1745225694,0.0001085069
557671.6000229639,0.0286865234,9.7994995120,-0.0099182129,-0.0017361111,-0.1744357639,0.0001410590
557671.6100229640,0.0300598145,9.7946166995,-0.0311279297,-0.0000651042,-0.1744683160,0.0001193576
557671.6200229640,0.0292968750,9.8004150394,-0.0077819824,-0.0007921007,-0.1745334201,0.0001193576
557671.6300229640,0.0292968750,9.7975158695,-0.0198364258,-0.0014756944,-0.1744574653,0.0001302083
557671.6400229640,0.0279235840,9.7964477542,-0.0239562988,0.0002495660,-0.1745876736,0.0001085069
557671.6500229640,0.0294494629,9.7999572757,-0.0067138672,-0.0015407986,-0.1744683160,0.0001302083
557671.6600229640,0.0300598145,9.7955322269,-0.0285339355,-0.0005967882,-0.1744683160,0.0001085069
557671.6700229640,0.0289916992,9.7979736331,-0.0132751465,-0.0001736111,-0.1745551215,0.0001193576
557671.6800229640,0.0286865234,9.7990417484,-0.0128173828,-0.0018120660,-0.1744574653,0.0001085069
557671.6900229640,0.0277709961,9.7953796390,-0.0288391113,0.0001193576,-0.1744683160,0.0001302083
557671.7000229640,0.0294494629,9.8001098636,-0.0044250488,-0.0010742187,-0.1745551215,0.0001410590
557671.7100229640,0.0300598145,9.7964477542,-0.0236511230,-0.0011501736,-0.1744574653,0.0000976562
557671.7200229639,0.0283813477,9.7964477542,-0.0212097168,0.0001736111,-0.1746093750,0.0001085069
557671.7300229640,0.0283813477,9.8001098636,-0.0074768066,-0.0017578125,-0.1744574653,0.0001085069
557671.7400229640,0.0291442871,9.7946166995,-0.0300598145,-0.0002604167,-0.1744249132,0.0001302083
557671.7500229640,0.0303649902,9.7998046878,-0.0099182129,-0.0005208333,-0.1745225694,0.0001085069
557671.7600229640,0.0299072266,9.7981262210,-0.0173950195,-0.0016276042,-0.1744249132,0.0001302083
557671.7700229640,0.0274658203,9.7959899906,-0.0267028809,0.0002495660,-0.1745442708,0.0001193576
557671.7800229640,0.0279235840,9.8011779788,-0.0044250488,-0.0014214410,-0.1744466146,0.0001085069
557671.7900229640,0.0308227539,9.7956848148,-0.0286865234,-0.0007269965,-0.1745334201,0.0001302083
557671.8000229640,0.0302124023,9.7984313968,-0.0157165527,-0.0000217014,-0.1745008680,0.0001193576
557671.8100229640,0.0282287598,9.7988891605,-0.0122070313,-0.0018771701,-0.1745117187,0.0001085069
557671.8200229640,0.0282287598,9.7949218753,-0.0297546387,0.0000434028,-0.1745008680,0.0001302083
557671.8300229640,0.0299072266,9.8001098636,-0.0044250488,-0.0008897569,-0.1745225694,0.0001193576
557671.8400229641,0.0302124023,9.7966003421,-0.0239562988,-0.0013346354,-0.1744791667,0.0001193576
557671.8500229639,0.0291442871,9.7969055179,-0.0241088867,0.0002061632,-0.1745442708,0.0001085069
557671.8600229640,0.0285339355,9.8007202152,-0.0056457520,-0.0015950521,-0.1745117187,0.0001302083
557671.8700229640,0.0285339355,9.7947692874,-0.0292968750,-0.0004448785,-0.1744574653,0.0001410590
557671.8800229640,0.0308227539,9.7985839847,-0.0112915039,-0.0003255208,-0.1744466146,0.0001302083
557671.8900229640,0.0292968750,9.7990417484,-0.0155639648,-0.0017578125,-0.1744574653,0.0001193576
557671.9000229640,0.0277709961,9.7947692874,-0.0283813477,0.0001736111,-0.1744900174,0.0001085069
557671.9100229640,0.0282287598,9.8005676273,-0.0044250488,-0.0012152778,-0.1745442708,0.0001302083
557671.9200229640,0.0296020508,9.7959899906,-0.0262451172,-0.0009548611,-0.1745442708,0.0001085069
557671.9300229640,0.0311279297,9.7976684574,-0.0190734863,0.0000651042,-0.1744574653,0.0001302083
557671.9400229640,0.0289916992,9.8001098636,-0.0094604492,-0.0018012153,-0.1745442708,0.0001085069
557671.9500229650,0.0279235840,9.7950744632,-0.0292968750,-0.0000759549,-0.1745442708,0.0001302083
557671.9600229650,0.0286865234,9.8002624515,-0.0071716309,-0.0007921007,-0.1745008680,0.0001410590
557671.9700229650,0.0302124023,9.7972106937,-0.0227355957,-0.0013888889,-0.1744791667,0.0000868056
557671.9800229650,0.0292968750,9.7962951663,-0.0234985352,0.0001736111,-0.1745551215,0.0001193576
557671.9900229650,0.0283813477,9.8007202152,-0.0047302246,-0.0015516493,-0.1744683160,0.0001302083
557672.0000229650,0.0291442871,9.7958374027,-0.0303649902,-0.0004448785,-0.1745008680,0.0001193576
557672.0100229650,0.0288391113,9.7985839847,-0.0119018555,-0.0003797743,-0.1747287326,0.0001302083
557672.0200229650,0.0289916992,9.7985839847,-0.0161743164,-0.0016601562,-0.1743923611,0.0001085069
557672.0300229650,0.0285339355,9.7955322269,-0.0259399414,0.0001844618,-0.1744357639,0.0001193576
557672.0400229651,0.0292968750,9.8007202152,-0.0053405762,-0.0012803819,-0.1744357639,0.0001193576
557672.0500229649,0.0294494629,9.7958374027,-0.0277709961,-0.0008897569,-0.1744466146,0.0001193576
557672.0600229650,0.0296020508,9.7979736331,-0.0166320801,0.0000759549,-0.1744900174,0.0001302083
557672.0700229650,0.0297546387,9.7994995120,-0.0079345703,-0.0018229167,-0.1744574653,0.0001410590
557672.0800229650,0.0288391113,9.7955322269,-0.0315856934,-0.0000651042,-0.1745008680,0.0001193576
557672.0900229650,0.0294494629,9.8004150394,-0.0073242188,-0.0007921007,-0.1744791667,0.0001302083
557672.1000229650,0.0297546387,9.7976684574,-0.0199890137,-0.0014648437,-0.1745225694,0.0000976562
557672.1100229650,0.0289916992,9.7962951663,-0.0227355957,0.0002712674,-0.1744900174,0.0001193576
557672.1200229650,0.0286865234,9.8007202152,-0.0053405762,-0.0015625000,-0.1744900174,0.0000976562
557672.1300229650,0.0289916992,9.7950744632,-0.0311279297,-0.0004991319,-0.1746202257,0.0001410590
557672.1400229650,0.0288391113,9.7988891605,-0.0122070313,-0.0003255208,-0.1746093750,0.0001193576
557672.1500229650,0.0296020508,9.7988891605,-0.0138854980,-0.0017144097,-0.1744791667,0.0000976562
557672.1600229651,0.0299072266,9.7955322269,-0.0279235840,0.0001844618,-0.1745442708,0.0001302083
557672.1700229649,0.0288391113,9.8005676273,-0.0062561035,-0.0012044271,-0.1743923611,0.0001193576
557672.1800229650,0.0292968750,9.7969055179,-0.0262451172,-0.0010525174,-0.1743923611,0.0001302083
557672.1900229650,0.0291442871,9.7972106937,-0.0183105469,0.0001627604,-0.1745334201,0.0001302083
557672.2000229650,0.0305175781,9.7998046878,-0.0059509277,-0.0018012153,-0.1743815104,0.0001085069
557672.2100229650,0.0300598145,9.7947692874,-0.0320434570,-0.0001627604,-0.1745659722,0.0001193576
557672.2200229650,0.0279235840,9.7999572757,-0.0090026855,-0.0005316840,-0.1745225694,0.0001302083
557672.2300229650,0.0289916992,9.7985839847,-0.0164794922,-0.0016818576,-0.1744683160,0.0000976562
557672.2400229650,0.0303649902,9.7953796390,-0.0280761719,0.0003146701,-0.1745117187,0.0001302083
557672.2500229650,0.0302124023,9.8011779788,-0.0039672852,-0.0013237847,-0.1744357639,0.0000976562
557672.2600229650,0.0282287598,9.7959899906,-0.0256347656,-0.0009548611,-0.1744683160,0.0001193576
557672.2700229650,0.0274658203,9.7982788089,-0.0178527832,0.0001193576,-0.1746310764,0.0001302083
557672.2800229650,0.0305175781,9.8004150394,-0.0102233887,-0.0018229167,-0.1744900174,0.0001085069
557672.2900229651,0.0312805176,9.7953796390,-0.0305175781,-0.0000976562,-0.1745334201,0.0001302083
557672.3000229649,0.0289916992,9.8002624515,-0.0054931641,-0.0007595486,-0.1745008680,0.0001193576
557672.3100229650,0.0279235840,9.7972106937,-0.0186157227,-0.0014105903,-0.1743706597,0.0001085069
557672.3200229650,0.0285339355,9.7970581058,-0.0256347656,0.0002712674,-0.1745442708,0.0001410590
557672.3300229650,0.0305175781,9.7999572757,-0.0048828125,-0.0015842014,-0.1744791667,0.0001085069
557672.3400229650,0.0302124023,9.7950744632,-0.0292968750,-0.0005859375,-0.1744791667,0.0001193576
557672.3500229650,0.0282287598,9.7987365726,-0.0126647949,-0.0001736111,-0.1745334201,0.0001302083
557672.3600229650,0.0274658203,9.7994995120,-0.0123596191,-0.0018229167,-0.1744249132,0.0001193576
557672.3700229650,0.0306701660,9.7949218753,-0.0300598145,0.0001410590,-0.1744357639,0.0001302083
557672.3800229650,0.0311279297,9.8005676273,-0.0047302246,-0.0010308160,-0.1745334201,0.0001193576
557672.3900229650,0.0286865234,9.7967529300,-0.0222778320,-0.0012152778,-0.1744574653,0.0001193576
557672.4000229650,0.0273132324,9.7975158695,-0.0213623047,0.0002278646,-0.1745442708,0.0001302083
557672.4100229651,0.0292968750,9.7999572757,-0.0074768066,-0.0016818576,-0.1745551215,0.0001410590
557672.4200229649,0.0309753418,9.7955322269,-0.0305175781,-0.0003797743,-0.1745225694,0.0001302083
557672.4300229650,0.0302124023,9.7993469241,-0.0077819824,-0.0004340278,-0.1745117187,0.0000759549
557672.4400229650,0.0285339355,9.7981262210,-0.0158691406,-0.0015625000,-0.1744140625,0.0000976562
557672.4500229650,0.0276184082,9.7955322269,-0.0276184082,0.0001844618,-0.1744574653,0.0001302083
557672.4600229650,0.0297546387,9.8002624515,-0.0059509277,-0.0013563368,-0.1744357639,0.0001193576
557672.4700229650,0.0311279297,9.7961425784,-0.0267028809,-0.0008029514,-0.1745008680,0.0000868056
557672.4800229650,0.0288391113,9.7985839847,-0.0155639648,-0.0000759549,-0.1745985243,0.0001302083
557672.4900229650,0.0285339355,9.7996520999,-0.0106811523,-0.0018012153,-0.1744791667,0.0001193576
557672.5000229650,0.0289916992,9.7949218753,-0.0306701660,0.0000434028,-0.1744357639,0.0001302083
557672.5100229650,0.0305175781,9.8001098636,-0.0054931641,-0.0008789062,-0.1745008680,0.0001193576
557672.5200229650,0.0305175781,9.7970581058,-0.0221252441,-0.0013346354,-0.1744791667,0.0000976562
557672.5300229650,0.0276184082,9.7970581058,-0.0228881836,0.0002495660,-0.1745117187,0.0001302083
557672.5400229651,0.0286865234,9.8008728031,-0.0057983398,-0.0016601562,-0.1744791667,0.0001302083
557672.5500229649,0.0299072266,9.7950744632,-0.0294494629,-0.0004448785,-0.1745442708,0.0001302083
557672.5600229650,0.0305175781,9.7996520999,-0.0100708008,-0.0003580729,-0.1744574653,0.0001193576
557672.5700229650,0.0292968750,9.7988891605,-0.0160217285,-0.0016710069,-0.1745117187,0.0001085069
557672.5800229650,0.0273132324,9.7956848148,-0.0286865234,0.0002170139,-0.1745225694,0.0001302083
557672.5900229650,0.0282287598,9.8007202152,-0.0036621094,-0.0012803819,-0.1745117187,0.0001302083
557672.6000229650,0.0306701660,9.7958374027,-0.0263977051,-0.0009223090,-0.1744357639,0.0001085069
557672.6100229650,0.0292968750,9.7978210452,-0.0178527832,0.0000542535,-0.1745008680,0.0001302083
557672.6200229650,0.0291442871,9.7998046878,-0.0083923340,-0.0017686632,-0.1743923611,0.0001193576
557672.6300229650,0.0288391113,9.7953796390,-0.0291442871,-0.0001193576,-0.1745225694,0.0001193576
557672.6400229650,0.0303649902,9.7999572757,-0.0076293945,-0.0006944444,-0.1744791667,0.0001302083
557672.6500229650,0.0309753418,9.7976684574,-0.0207519531,-0.0014756944,-0.1744900174,0.0000976562
557672.6600229651,0.0283813477,9.7969055179,-0.0231933594,0.0002712674,-0.1745442708,0.0001193576
557672.6700229649,0.0292968750,9.8008728031,-0.0030517578,-0.0015082465,-0.1744574653,0.0001302083
557672.6800229650,0.0289916992,9.7956848148,-0.0297546387,-0.0006076389,-0.1745659722,0.0001193576
557672.6900229650,0.0299072266,9.7990417484,-0.0132751465,-0.0002387153,-0.1744900174,0.0001193576
557672.7000229650,0.0291442871,9.7987365726,-0.0138854980,-0.0017252604,-0.1745225694,0.0001302083
557672.7100229650,0.0282287598,9.7956848148,-0.0277709961,0.0001410590,-0.1744466146,0.0001193576
557672.7200229650,0.0294494629,9.8002624515,-0.0053405762,-0.0011176215,-0.1743923611,0.0001302083
557672.7300229650,0.0294494629,9.7966003421,-0.0256347656,-0.0010308160,-0.1745442708,0.0000976562
557672.7400229650,0.0291442871,9.7979736331,-0.0187683105,0.0000976562,-0.1744249132,0.0001302083
557672.7500229650,0.0292968750,9.7996520999,-0.0070190430,-0.0017686632,-0.1743815104,0.0001410590
557672.7600229650,0.0300598145,9.7955322269,-0.0308227539,-0.0001193576,-0.1744683160,0.0001193576
557672.7700229650,0.0305175781,9.7998046878,-0.0090026855,-0.0006076389,-0.1744249132,0.0001193576
557672.7800229650,0.0291442871,9.7981262210,-0.0189208984,-0.0015625000,-0.1745442708,0.0001085069
557672.7900229651,0.0283813477,9.7956848148,-0.0242614746,0.0003146701,-0.1745442708,0.0001302083
557672.8000229649,0.0297546387,9.8011779788,-0.0041198730,-0.0014648437,-0.1744574653,0.0001302083
557672.8100229650,0.0302124023,9.7956848148,-0.0289916992,-0.0007703993,-0.1745659722,0.0001193576
557672.8200229650,0.0291442871,9.7985839847,-0.0158691406,-0.0000868056,-0.1745117187,0.0001193576
557672.8300229650,0.0289916992,9.7993469241,-0.0096130371,-0.0018120660,-0.1745334201,0.0001193576
557672.8400229650,0.0291442871,9.7952270511,-0.0289916992,0.0000868056,-0.1746093750,0.0001193576
557672.8500229650,0.0297546387,9.8007202152,-0.0054931641,-0.0009331597,-0.1745442708,0.0001302083
557672.8600229650,0.0306701660,9.7967529300,-0.0227355957,-0.0013237847,-0.1744791667,0.0001302083
557672.8700229650,0.0283813477,9.7969055179,-0.0222778320,0.0002495660,-0.1744574653,0.0001302083
557672.8800229650,0.0288391113,9.8005676273,-0.0042724609,-0.0016601562,-0.1743598090,0.0001519097
557672.8900229650,0.0305175781,9.7953796390,-0.0306701660,-0.0003797743,-0.1744574653,0.0001193576
557672.9000229650,0.0300598145,9.7993469241,-0.0122070313,-0.0003689236,-0.1744249132,0.0001193576
557672.9100229651,0.0288391113,9.7988891605,-0.0149536133,-0.0016818576,-0.1745442708,0.0001085069
557672.9200229649,0.0289916992,9.7955322269,-0.0265502930,0.0002387153,-0.1745551215,0.0001410590
557672.9300229650,0.0299072266,9.8004150394,-0.0044250488,-0.0011935764,-0.1745334201,0.0001410590
557672.9400229650,0.0303649902,9.7964477542,-0.0277709961,-0.0010416667,-0.1745008680,0.0001193576
557672.9500229650,0.0294494629,9.7976684574,-0.0177001953,0.0000759549,-0.1745008680,0.0001302083
557672.9600229650,0.0283813477,9.7996520999,-0.0068664551,-0.0017686632,-0.1745442708,0.0001193576
557672.9700229650,0.0299072266,9.7949218753,-0.0309753418,-0.0001085069,-0.1744683160,0.0001193576
557672.9800229650,0.0302124023,9.7999572757,-0.0071716309,-0.0006184896,-0.1745334201,0.0001193576
557672.9900229650,0.0299072266,9.7981262210,-0.0173950195,-0.0015516493,-0.1744574653,0.0000976562
557673.0000229650,0.0283813477,9.7956848148,-0.0244140625,0.0002929687,-0.1744574653,0.0001193576
557673.0100229650,0.0288391113,9.8002624515,-0.0048828125,-0.0014648437,-0.1747395833,0.0001410590
557673.0200229660,0.0303649902,9.7953796390,-0.0285339355,-0.0006944444,-0.1744140625,0.0001302083
557673.0300229660,0.0303649902,9.7982788089,-0.0128173828,-0.0000759549,-0.1745334201,0.0001193576
557673.0400229660,0.0292968750,9.7993469241,-0.0097656250,-0.0018012153,-0.1745117187,0.0001085069
557673.0500229660,0.0286865234,9.7952270511,-0.0302124023,0.0000976562,-0.1745334201,0.0001302083
557673.0600229660,0.0296020508,9.8002624515,-0.0050354004,-0.0009223090,-0.1745008680,0.0001193576
557673.0700229660,0.0309753418,9.7969055179,-0.0228881836,-0.0012695312,-0.1744791667,0.0001302083
557673.0800229660,0.0296020508,9.7970581058,-0.0199890137,0.0002061632,-0.1744574653,0.0001302083
557673.0900229660,0.0288391113,9.8001098636,-0.0064086914,-0.0016818576,-0.1744900174,0.0001410590
557673.1000229660,0.0285339355,9.7950744632,-0.0311279297,-0.0003038194,-0.1745225694,0.0001085069
557673.1100229661,0.0303649902,9.7991943363,-0.0090026855,-0.0003906250,-0.1745551215,0.0001302083
557673.1200229659,0.0302124023,9.7988891605,-0.0157165527,-0.0016818576,-0.1744466146,0.0001085069
557673.1300229660,0.0286865234,9.7958374027,-0.0276184082,0.0002712674,-0.1745117187,0.0001302083
557673.1400229660,0.0288391113,9.8007202152,-0.0041198730,-0.0013129340,-0.1744357639,0.0001302083
557673.1500229660,0.0297546387,9.7964477542,-0.0263977051,-0.0008897569,-0.1744249132,0.0001302083
557673.1600229660,0.0297546387,9.7978210452,-0.0169372559,0.0000000000,-0.1744466146,0.0001302083
