t(s),acc_x,acc_y,acc_z,gyro_x,gyro_y,gyro_z
558510.0000237450,-9.8039245609,0.0431823730,-0.0975036621,-0.0000651042,-0.0000325521,0.0003472222
558510.0100237450,-9.8031616214,0.0407409668,-0.0971984863,-0.0000542535,0.0000108507,-0.0005642361
558510.0200237450,-9.8040771488,0.0457763672,-0.0981140137,-0.0000434028,-0.0000000000,0.0004557292
558510.0300237450,-9.8030090335,0.0395202637,-0.1000976563,-0.0000108507,-0.0000000000,-0.0005425347
558510.0400237450,-9.8046875003,0.0486755371,-0.0978088379,-0.0000434028,-0.0000000000,0.0002929687
558510.0500237450,-9.8034667972,0.0376892090,-0.0973510742,0.0000000000,-0.0000000000,-0.0002821181
558510.0600237451,-9.8052978519,0.0471496582,-0.0976562500,-0.0000434028,0.0000108507,0.0000325521
558510.0700237449,-9.8033142093,0.0393676758,-0.0996398926,-0.0000651042,-0.0000000000,0.0000217014
558510.0800237450,-9.8049926761,0.0460815430,-0.0988769531,-0.0000542535,-0.0000000000,-0.0002604167
558510.0900237450,-9.8046875003,0.0434875488,-0.0970458984,-0.0000542535,-0.0000000000,0.0002495660
558510.1000237450,-9.8040771488,0.0416564941,-0.0982666016,0.0000000000,0.0000108507,-0.0004882812
558510.1100237450,-9.8042297366,0.0451660156,-0.0990295410,-0.0000325521,-0.0000217014,0.0004665799
558510.1200237450,-9.8030090335,0.0407409668,-0.0979614258,-0.0000108507,0.0000108507,-0.0005967882
558510.1300237450,-9.8051452640,0.0477600098,-0.0973510742,-0.0000976562,-0.0000000000,0.0003580729
558510.1400237450,-9.8033142093,0.0376892090,-0.0979614258,-0.0000325521,-0.0000108507,-0.0003255208
558510.1500237450,-9.8049926761,0.0485229492,-0.0990295410,-0.0000651042,0.0000108507,0.0000759549
558510.1600237450,-9.8036193851,0.0395202637,-0.0987243652,-0.0000108507,-0.0000000000,-0.0000434028
558510.1700237450,-9.8043823245,0.0454711914,-0.0975036621,0.0000000000,-0.0000000000,-0.0002821181
558510.1800237451,-9.8046875003,0.0415039063,-0.0976562500,-0.0000434028,-0.0000000000,0.0003038194
558510.1900237449,-9.8037719730,0.0424194336,-0.0991821289,-0.0000108507,-0.0000325521,-0.0005208333
558510.2000237450,-9.8042297366,0.0465393066,-0.0988769531,-0.0000651042,-0.0000000000,0.0004340278
558510.2100237450,-9.8040771488,0.0392150879,-0.0973510742,-0.0000434028,0.0000108507,-0.0005425347
558510.2200237450,-9.8051452640,0.0468444824,-0.0982666016,-0.0000542535,-0.0000000000,0.0003472222
558510.2300237450,-9.8028564456,0.0392150879,-0.0985717773,0.0000000000,0.0000217014,-0.0003797743
558510.2400237450,-9.8042297366,0.0483703613,-0.0978088379,-0.0000217014,-0.0000108507,0.0001193576
558510.2500237450,-9.8039245609,0.0381469727,-0.0985717773,-0.0000217014,-0.0000000000,-0.0001085069
558510.2600237450,-9.8043823245,0.0465393066,-0.0987243652,-0.0000325521,-0.0000000000,-0.0001302083
558510.2700237450,-9.8034667972,0.0418090820,-0.0981140137,-0.0000542535,-0.0000108507,0.0001302083
558510.2800237450,-9.8042297366,0.0439453125,-0.0976562500,-0.0000542535,-0.0000000000,-0.0004014757
558510.2900237450,-9.8039245609,0.0431823730,-0.0981140137,-0.0000542535,0.0000108507,0.0003472222
558510.3000237450,-9.8037719730,0.0408935547,-0.0987243652,0.0000108507,-0.0000108507,-0.0005208333
558510.3100237451,-9.8048400882,0.0468444824,-0.0981140137,-0.0000325521,-0.0000000000,0.0004123264
558510.3200237449,-9.8033142093,0.0405883789,-0.0978088379,-0.0000217014,0.0000217014,-0.0004991319
558510.3300237450,-9.8048400882,0.0469970703,-0.0976562500,-0.0000434028,-0.0000325521,0.0003038194
558510.3400237450,-9.8028564456,0.0378417969,-0.0990295410,-0.0000434028,0.0000108507,-0.0003689236
558510.3500237450,-9.8045349124,0.0492858887,-0.0984191895,-0.0000651042,-0.0000000000,0.0001410590
558510.3600237450,-9.8040771488,0.0387573242,-0.0975036621,-0.0000325521,-0.0000000000,-0.0001410590
558510.3700237450,-9.8045349124,0.0453186035,-0.0973510742,-0.0000108507,0.0000108507,-0.0001627604
558510.3800237450,-9.8036193851,0.0411987305,-0.0979614258,-0.0000434028,-0.0000108507,0.0002278646
558510.3900237450,-9.8042297366,0.0440979004,-0.0987243652,-0.0000325521,-0.0000000000,-0.0004991319
558510.4000237450,-9.8039245609,0.0459289551,-0.0973510742,-0.0000759549,-0.0000000000,0.0004231771
558510.4100237450,-9.8039245609,0.0384521484,-0.0982666016,-0.0000325521,-0.0000000000,-0.0005642361
558510.4200237450,-9.8048400882,0.0463867188,-0.0978088379,-0.0000542535,-0.0000000000,0.0003689236
558510.4300237451,-9.8036193851,0.0402832031,-0.0987243652,0.0000000000,0.0000108507,-0.0003906250
558510.4400237449,-9.8042297366,0.0473022461,-0.0979614258,-0.0000325521,-0.0000000000,0.0001627604
558510.4500237450,-9.8034667972,0.0376892090,-0.0975036621,0.0000000000,-0.0000000000,-0.0001410590
558510.4600237450,-9.8045349124,0.0471496582,-0.0988769531,-0.0000325521,-0.0000000000,-0.0000651042
558510.4700237450,-9.8037719730,0.0415039063,-0.0985717773,-0.0000759549,-0.0000108507,0.0000976562
558510.4800237450,-9.8043823245,0.0436401367,-0.0990295410,-0.0000434028,-0.0000000000,-0.0003689236
558510.4900237450,-9.8040771488,0.0428771973,-0.0978088379,-0.0000542535,-0.0000000000,0.0003255208
558510.5000237450,-9.8040771488,0.0419616699,-0.0984191895,0.0000000000,-0.0000108507,-0.0004991319
558510.5100237450,-9.8054504398,0.0457763672,-0.0982666016,-0.0000217014,0.0000108507,0.0004123264
558510.5200237450,-9.8030090335,0.0398254395,-0.0984191895,-0.0000217014,-0.0000000000,-0.0005208333
558510.5300237450,-9.8039245609,0.0469970703,-0.0975036621,-0.0000434028,-0.0000000000,0.0003580729
558510.5400237460,-9.8031616214,0.0382995605,-0.0982666016,-0.0000217014,0.0000217014,-0.0003689236
558510.5500237460,-9.8052978519,0.0489807129,-0.0982666016,-0.0000759549,-0.0000000000,0.0000759549
558510.5600237460,-9.8034667972,0.0381469727,-0.0984191895,-0.0000108507,-0.0000000000,-0.0000434028
558510.5700237460,-9.8042297366,0.0451660156,-0.0976562500,-0.0000108507,-0.0000000000,-0.0002061632
558510.5800237460,-9.8037719730,0.0431823730,-0.0978088379,-0.0000434028,-0.0000108507,0.0002278646
558510.5900237460,-9.8033142093,0.0427246094,-0.0985717773,-0.0000217014,-0.0000000000,-0.0004991319
558510.6000237460,-9.8046875003,0.0437927246,-0.0978088379,-0.0000759549,-0.0000000000,0.0004340278
558510.6100237460,-9.8031616214,0.0407409668,-0.0985717773,-0.0000325521,-0.0000000000,-0.0005533854
558510.6200237460,-9.8051452640,0.0477600098,-0.0979614258,-0.0000651042,-0.0000000000,0.0003906250
558510.6300237461,-9.8037719730,0.0382995605,-0.0981140137,0.0000000000,0.0000108507,-0.0004665799
558510.6400237459,-9.8052978519,0.0469970703,-0.0978088379,-0.0000542535,-0.0000434028,0.0001953125
558510.6500237460,-9.8034667972,0.0378417969,-0.0982666016,-0.0000217014,0.0000325521,-0.0001302083
558510.6600237460,-9.8048400882,0.0482177734,-0.0981140137,-0.0000325521,-0.0000000000,-0.0000759549
558510.6700237460,-9.8034667972,0.0408935547,-0.0981140137,-0.0000651042,-0.0000000000,0.0000759549
558510.6800237460,-9.8043823245,0.0419616699,-0.0985717773,-0.0000325521,0.0000217014,-0.0003363715
558510.6900237460,-9.8042297366,0.0439453125,-0.0991821289,-0.0000651042,-0.0000108507,0.0003038194
558510.7000237460,-9.8037719730,0.0430297852,-0.0979614258,0.0000000000,-0.0000108507,-0.0005099826
558510.7100237460,-9.8045349124,0.0447082520,-0.0978088379,-0.0000325521,-0.0000000000,0.0003689236
558510.7200237460,-9.8033142093,0.0390625000,-0.0987243652,-0.0000217014,-0.0000000000,-0.0004991319
558510.7300237460,-9.8048400882,0.0474548340,-0.0981140137,-0.0000542535,-0.0000000000,0.0003689236
558510.7400237460,-9.8036193851,0.0395202637,-0.0978088379,-0.0000325521,-0.0000000000,-0.0004665799
558510.7500237460,-9.8046875003,0.0479125977,-0.0973510742,-0.0000759549,-0.0000000000,0.0001953125
558510.7600237461,-9.8039245609,0.0372314453,-0.0984191895,-0.0000108507,-0.0000000000,-0.0001627604
558510.7700237460,-9.8039245609,0.0468444824,-0.0987243652,-0.0000217014,-0.0000000000,-0.0000542535
558510.7800237460,-9.8042297366,0.0422668457,-0.0979614258,-0.0000108507,-0.0000000000,0.0001085069
558510.7900237460,-9.8037719730,0.0436401367,-0.0981140137,-0.0000217014,0.0000108507,-0.0004123264
558510.8000237460,-9.8043823245,0.0425720215,-0.0982666016,-0.0000759549,-0.0000108507,0.0004123264
558510.8100237460,-9.8031616214,0.0413513184,-0.0991821289,-0.0000108507,0.0000217014,-0.0005642361
558510.8200237460,-9.8049926761,0.0471496582,-0.0984191895,-0.0000651042,-0.0000325521,0.0004231771
558510.8300237460,-9.8037719730,0.0376892090,-0.0978088379,-0.0000217014,-0.0000000000,-0.0004882812
558510.8400237460,-9.8048400882,0.0479125977,-0.0971984863,-0.0000325521,0.0000108507,0.0003038194
558510.8500237460,-9.8030090335,0.0382995605,-0.0994873047,0.0000000000,0.0000108507,-0.0002170139
558510.8600237460,-9.8049926761,0.0485229492,-0.0985717773,-0.0000542535,-0.0000000000,-0.0000868056
558510.8700237460,-9.8039245609,0.0404357910,-0.0970458984,-0.0000542535,0.0000108507,0.0001302083
558510.8800237461,-9.8048400882,0.0424194336,-0.0981140137,-0.0000217014,-0.0000000000,-0.0004123264
558510.8900237459,-9.8043823245,0.0450134277,-0.0985717773,-0.0000651042,-0.0000108507,0.0004231771
558510.9000237460,-9.8030090335,0.0415039063,-0.0984191895,0.0000000000,0.0000217014,-0.0005533854
558510.9100237460,-9.8043823245,0.0463867188,-0.0981140137,-0.0000217014,-0.0000000000,0.0003797743
558510.9200237460,-9.8033142093,0.0386047363,-0.0976562500,-0.0000108507,0.0000108507,-0.0004557292
558510.9300237460,-9.8042297366,0.0480651855,-0.0984191895,-0.0000542535,-0.0000000000,0.0002712674
558510.9400237460,-9.8031616214,0.0395202637,-0.0978088379,-0.0000434028,-0.0000000000,-0.0003255208
558510.9500237460,-9.8049926761,0.0466918945,-0.0981140137,-0.0000976562,0.0000108507,0.0000759549
558510.9600237460,-9.8040771488,0.0392150879,-0.0981140137,-0.0000217014,-0.0000000000,-0.0000651042
558510.9700237460,-9.8040771488,0.0466918945,-0.0990295410,-0.0000108507,-0.0000000000,-0.0001953125
558510.9800237460,-9.8034667972,0.0419616699,-0.0976562500,-0.0000434028,-0.0000000000,0.0001736111
558510.9900237460,-9.8040771488,0.0427246094,-0.0984191895,0.0000000000,0.0000108507,-0.0004014757
558511.0000237460,-9.8045349124,0.0439453125,-0.0987243652,-0.0000651042,-0.0000108507,0.0003689236
558511.0100237461,-9.8033142093,0.0424194336,-0.0987243652,-0.0000325521,0.0000217014,-0.0005750868
558511.0200237460,-9.8049926761,0.0460815430,-0.0978088379,-0.0000651042,-0.0000108507,0.0004340278
558511.0300237460,-9.8034667972,0.0379943848,-0.0979614258,-0.0000108507,-0.0000000000,-0.0005099826
558511.0400237460,-9.8046875003,0.0480651855,-0.0981140137,-0.0000217014,-0.0000000000,0.0003038194
558511.0500237460,-9.8030090335,0.0386047363,-0.0987243652,-0.0000108507,-0.0000000000,-0.0002604167
558511.0600237460,-9.8048400882,0.0479125977,-0.0982666016,-0.0000434028,-0.0000000000,-0.0000217014
558511.0700237460,-9.8042297366,0.0398254395,-0.0978088379,-0.0000542535,-0.0000000000,0.0000217014
558511.0800237460,-9.8045349124,0.0451660156,-0.0979614258,-0.0000434028,-0.0000000000,-0.0002604167
558511.0900237460,-9.8040771488,0.0428771973,-0.0982666016,-0.0000651042,-0.0000000000,0.0002495660
558511.1000237460,-9.8037719730,0.0428771973,-0.0984191895,0.0000108507,-0.0000000000,-0.0004991319
558511.1100237460,-9.8043823245,0.0444030762,-0.0979614258,-0.0000434028,-0.0000108507,0.0004231771
558511.1200237460,-9.8030090335,0.0396728516,-0.0984191895,-0.0000108507,-0.0000000000,-0.0005750868
558511.1300237461,-9.8042297366,0.0485229492,-0.0978088379,-0.0000434028,-0.0000000000,0.0004123264
558511.1400237459,-9.8030090335,0.0378417969,-0.0993347168,-0.0000434028,-0.0000000000,-0.0004231771
558511.1500237460,-9.8046875003,0.0473022461,-0.0978088379,-0.0000542535,0.0000108507,0.0001302083
558511.1600237460,-9.8036193851,0.0398254395,-0.0982666016,-0.0000325521,-0.0000000000,-0.0000217014
558511.1700237460,-9.8045349124,0.0469970703,-0.0985717773,-0.0000108507,-0.0000000000,-0.0003146701
558511.1800237460,-9.8042297366,0.0427246094,-0.0979614258,-0.0000325521,-0.0000000000,0.0003580729
558511.1900237460,-9.8036193851,0.0404357910,-0.0982666016,0.0000000000,0.0000217014,-0.0005750868
558511.2000237460,-9.8043823245,0.0477600098,-0.0979614258,-0.0000651042,-0.0000000000,0.0004774306
558511.2100237460,-9.8031616214,0.0392150879,-0.0991821289,-0.0000217014,0.0000217014,-0.0005425347
558511.2200237460,-9.8049926761,0.0473022461,-0.0979614258,-0.0000542535,-0.0000325521,0.0002712674
558511.2300237460,-9.8028564456,0.0373840332,-0.0971984863,-0.0000108507,0.0000108507,-0.0002170139
558511.2400237460,-9.8046875003,0.0485229492,-0.0984191895,-0.0000325521,-0.0000000000,-0.0000325521
558511.2500237460,-9.8037719730,0.0404357910,-0.0990295410,-0.0000217014,-0.0000000000,0.0000759549
558511.2600237461,-9.8043823245,0.0436401367,-0.0982666016,-0.0000217014,-0.0000000000,-0.0003906250
558511.2700237460,-9.8043823245,0.0430297852,-0.0979614258,-0.0000759549,-0.0000000000,0.0003797743
558511.2800237460,-9.8033142093,0.0413513184,-0.0981140137,-0.0000108507,-0.0000000000,-0.0005859375
558511.2900237460,-9.8048400882,0.0468444824,-0.0978088379,-0.0000976562,-0.0000000000,0.0004448785
558511.3000237460,-9.8027038577,0.0373840332,-0.0984191895,0.0000000000,-0.0000000000,-0.0004774306
558511.3100237460,-9.8049926761,0.0480651855,-0.0981140137,-0.0000325521,-0.0000108507,0.0002604167
558511.3200237460,-9.8039245609,0.0393676758,-0.0982666016,-0.0000108507,-0.0000000000,-0.0001953125
558511.3300237460,-9.8048400882,0.0469970703,-0.0984191895,-0.0000542535,-0.0000000000,-0.0000759549
558511.3400237460,-9.8042297366,0.0401306152,-0.0978088379,-0.0000434028,-0.0000000000,0.0001085069
558511.3500237460,-9.8040771488,0.0440979004,-0.0976562500,-0.0000325521,0.0000108507,-0.0003906250
558511.3600237460,-9.8043823245,0.0445556641,-0.0984191895,-0.0000434028,-0.0000000000,0.0003689236
558511.3700237460,-9.8037719730,0.0407409668,-0.0991821289,0.0000000000,0.0000108507,-0.0005425347
558511.3800237461,-9.8051452640,0.0453186035,-0.0982666016,-0.0000325521,-0.0000108507,0.0004231771
558511.3900237459,-9.8031616214,0.0395202637,-0.0975036621,-0.0000108507,-0.0000000000,-0.0005208333
558511.4000237460,-9.8051452640,0.0479125977,-0.0975036621,-0.0000542535,0.0000217014,0.0003363715
558511.4100237460,-9.8034667972,0.0379943848,-0.0993347168,-0.0000325521,-0.0000108507,-0.0003689236
558511.4200237460,-9.8046875003,0.0471496582,-0.0985717773,-0.0000759549,-0.0000000000,0.0000976562
558511.4300237460,-9.8033142093,0.0390625000,-0.0970458984,-0.0000217014,-0.0000000000,0.0000000000
558511.4400237460,-9.8042297366,0.0473022461,-0.0987243652,0.0000000000,-0.0000000000,-0.0002604167
558511.4500237460,-9.8037719730,0.0419616699,-0.0979614258,-0.0000434028,-0.0000000000,0.0002929687
558511.4600237460,-9.8042297366,0.0407409668,-0.0981140137,-0.0000217014,-0.0000108507,-0.0005208333
558511.4700237460,-9.8043823245,0.0460815430,-0.0976562500,-0.0000651042,-0.0000000000,0.0004557292
558511.4800237460,-9.8028564456,0.0404357910,-0.0982666016,-0.0000434028,0.0000217014,-0.0005642361
558511.4900237460,-9.8052978519,0.0479125977,-0.0990295410,-0.0000542535,-0.0000325521,0.0003580729
558511.5000237460,-9.8033142093,0.0372314453,-0.0979614258,0.0000000000,-0.0000000000,-0.0003255208
558511.5100237461,-9.8049926761,0.0480651855,-0.0978088379,-0.0000325521,-0.0000000000,0.0000868056
558511.5200237460,-9.8037719730,0.0404357910,-0.0984191895,-0.0000108507,-0.0000000000,0.0000000000
558511.5300237460,-9.8045349124,0.0457763672,-0.0996398926,-0.0000325521,0.0000108507,-0.0003255208
558511.5400237460,-9.8039245609,0.0415039063,-0.0978088379,-0.0000651042,-0.0000000000,0.0003472222
558511.5500237460,-9.8034667972,0.0411987305,-0.0975036621,-0.0000217014,-0.0000000000,-0.0005533854
558511.5600237460,-9.8051452640,0.0471496582,-0.0985717773,-0.0000434028,-0.0000108507,0.0004231771
558511.5700237460,-9.8034667972,0.0390625000,-0.0993347168,-0.0000217014,-0.0000000000,-0.0005533854
558511.5800237460,-9.8057556156,0.0473022461,-0.0982666016,-0.0000434028,-0.0000108507,0.0003689236
558511.5900237460,-9.8030090335,0.0381469727,-0.0976562500,-0.0000108507,0.0000108507,-0.0003255208
558511.6000237460,-9.8033142093,0.0485229492,-0.0982666016,-0.0000651042,-0.0000000000,0.0000217014
558511.6100237460,-9.8037719730,0.0404357910,-0.0990295410,-0.0000542535,-0.0000108507,0.0000434028
558511.6200237470,-9.8039245609,0.0440979004,-0.0978088379,-0.0000217014,0.0000108507,-0.0003906250
558511.6300237470,-9.8039245609,0.0436401367,-0.0970458984,-0.0000542535,-0.0000000000,0.0003797743
558511.6400237470,-9.8036193851,0.0416564941,-0.0985717773,0.0000108507,0.0000108507,-0.0005750868
558511.6500237470,-9.8054504398,0.0466918945,-0.0988769531,-0.0000434028,-0.0000000000,0.0004448785
558511.6600237470,-9.8033142093,0.0381469727,-0.0988769531,-0.0000217014,-0.0000108507,-0.0005099826
558511.6700237470,-9.8052978519,0.0479125977,-0.0965881348,-0.0000651042,0.0000108507,0.0002929687
558511.6800237470,-9.8028564456,0.0386047363,-0.0976562500,-0.0000434028,-0.0000000000,-0.0002495660
558511.6900237470,-9.8045349124,0.0471496582,-0.1002502441,-0.0000434028,-0.0000000000,-0.0000434028
558511.7000237470,-9.8040771488,0.0398254395,-0.0985717773,-0.0000325521,-0.0000000000,0.0000976562
558511.7100237469,-9.8034667972,0.0453186035,-0.0973510742,-0.0000217014,-0.0000000000,-0.0003906250
558511.7200237470,-9.8036193851,0.0433349609,-0.0976562500,-0.0000434028,-0.0000000000,0.0003906250
558511.7300237470,-9.8031616214,0.0401306152,-0.0999450684,0.0000000000,0.0000217014,-0.0006076389
558511.7400237470,-9.8046875003,0.0476074219,-0.0982666016,-0.0000651042,-0.0000108507,0.0004774306
558511.7500237470,-9.8031616214,0.0375366211,-0.0975036621,-0.0000325521,-0.0000108507,-0.0005099826
558511.7600237470,-9.8043823245,0.0483703613,-0.0976562500,-0.0000434028,0.0000217014,0.0002061632
558511.7700237470,-9.8037719730,0.0381469727,-0.0997924805,-0.0000108507,-0.0000000000,-0.0001302083
558511.7800237470,-9.8036193851,0.0463867188,-0.0973510742,-0.0000217014,-0.0000108507,-0.0001627604
558511.7900237470,-9.8042297366,0.0424194336,-0.0968933106,-0.0000434028,0.0000108507,0.0001844618
558511.8000237470,-9.8027038577,0.0431823730,-0.0996398926,-0.0000325521,-0.0000000000,-0.0004665799
558511.8100237470,-9.8043823245,0.0437927246,-0.0990295410,-0.0000651042,-0.0000000000,0.0004123264
558511.8200237470,-9.8040771488,0.0405883789,-0.0984191895,-0.0000325521,-0.0000000000,-0.0005425347
558511.8300237471,-9.8049926761,0.0474548340,-0.0970458984,-0.0000325521,-0.0000108507,0.0004123264
558511.8400237469,-9.8033142093,0.0389099121,-0.0990295410,-0.0000108507,0.0000108507,-0.0004882812
558511.8500237470,-9.8048400882,0.0476074219,-0.0991821289,-0.0000217014,-0.0000000000,0.0002495660
558511.8600237470,-9.8031616214,0.0381469727,-0.0981140137,-0.0000434028,-0.0000000000,-0.0002604167
558511.8700237470,-9.8042297366,0.0477600098,-0.0973510742,-0.0000651042,0.0000108507,0.0000000000
558511.8800237470,-9.8040771488,0.0393676758,-0.0982666016,-0.0000434028,-0.0000108507,0.0000108507
558511.8900237470,-9.8046875003,0.0451660156,-0.0994873047,-0.0000325521,-0.0000000000,-0.0003038194
558511.9000237470,-9.8036193851,0.0430297852,-0.0981140137,-0.0000325521,-0.0000000000,0.0003363715
558511.9100237470,-9.8039245609,0.0416564941,-0.0973510742,0.0000000000,0.0000108507,-0.0005425347
558511.9200237470,-9.8048400882,0.0462341309,-0.0985717773,-0.0000217014,-0.0000217014,0.0004665799
558511.9300237470,-9.8027038577,0.0381469727,-0.0987243652,-0.0000434028,0.0000108507,-0.0005750868
558511.9400237470,-9.8045349124,0.0489807129,-0.0985717773,-0.0000651042,-0.0000000000,0.0003363715
558511.9500237470,-9.8028564456,0.0379943848,-0.0976562500,-0.0000434028,-0.0000000000,-0.0002929687
558511.9600237469,-9.8046875003,0.0479125977,-0.0975036621,-0.0000217014,0.0000108507,-0.0000542535
558511.9700237470,-9.8033142093,0.0405883789,-0.0985717773,-0.0000217014,-0.0000000000,0.0001844618
558511.9800237470,-9.8034667972,0.0434875488,-0.0982666016,0.0000000000,-0.0000108507,-0.0004774306
558511.9900237470,-9.8037719730,0.0448608398,-0.0971984863,-0.0000542535,0.0000108507,0.0004231771
558512.0000237470,-9.8046875003,0.0398254395,-0.0993347168,-0.0000217014,-0.0000000000,-0.0006184896
558512.0100237470,-9.8046875003,0.0476074219,-0.0985717773,-0.0000651042,-0.0000000000,0.0004123264
558512.0200237470,-9.8037719730,0.0381469727,-0.0981140137,-0.0000325521,-0.0000000000,-0.0004340278
558512.0300237470,-9.8043823245,0.0491333008,-0.0970458984,-0.0000325521,-0.0000000000,0.0001736111
558512.0400237470,-9.8037719730,0.0381469727,-0.0990295410,0.0000000000,-0.0000000000,-0.0001193576
558512.0500237470,-9.8045349124,0.0459289551,-0.0993347168,-0.0000325521,0.0000217014,-0.0001519097
558512.0600237470,-9.8039245609,0.0419616699,-0.0984191895,-0.0000434028,-0.0000325521,0.0002278646
558512.0700237470,-9.8039245609,0.0428771973,-0.0975036621,-0.0000217014,-0.0000000000,-0.0005099826
558512.0800237471,-9.8046875003,0.0457763672,-0.0978088379,-0.0000759549,-0.0000000000,0.0004557292
558512.0900237469,-9.8031616214,0.0382995605,-0.0990295410,-0.0000325521,0.0000325521,-0.0005967882
558512.1000237470,-9.8056030277,0.0488281250,-0.0984191895,-0.0000325521,-0.0000000000,0.0004123264
558512.1100237470,-9.8027038577,0.0390625000,-0.0976562500,-0.0000325521,-0.0000000000,-0.0004014757
558512.1200237470,-9.8054504398,0.0473022461,-0.0987243652,-0.0000542535,-0.0000108507,0.0000976562
558512.1300237470,-9.8031616214,0.0386047363,-0.0994873047,-0.0000325521,0.0000108507,-0.0000542535
558512.1400237470,-9.8034667972,0.0459289551,-0.0973510742,-0.0000325521,-0.0000000000,-0.0002821181
558512.1500237470,-9.8045349124,0.0434875488,-0.0973510742,-0.0000542535,0.0000108507,0.0003255208
558512.1600237470,-9.8039245609,0.0416564941,-0.1000976563,-0.0000217014,0.0000108507,-0.0005750868
558512.1700237470,-9.8046875003,0.0453186035,-0.0994873047,-0.0000325521,-0.0000651042,0.0005099826
558512.1800237470,-9.8028564456,0.0393676758,-0.0970458984,-0.0000108507,0.0000217014,-0.0005533854
558512.1900237470,-9.8048400882,0.0486755371,-0.0967407227,-0.0000542535,0.0000108507,0.0003038194
558512.2000237470,-9.8030090335,0.0382995605,-0.0990295410,-0.0000325521,0.0000759549,-0.0003038194
558512.2100237469,-9.8048400882,0.0465393066,-0.0999450684,-0.0000542535,-0.0000108507,0.0000108507
558512.2200237470,-9.8034667972,0.0393676758,-0.0973510742,-0.0000434028,-0.0000651042,0.0000434028
558512.2300237470,-9.8042297366,0.0463867188,-0.0958251953,-0.0000108507,-0.0000108507,-0.0003363715
558512.2400237470,-9.8042297366,0.0425720215,-0.0982666016,-0.0000434028,0.0000108507,0.0003580729
558512.2500237470,-9.8033142093,0.0408935547,-0.1002502441,0.0000000000,0.0000325521,-0.0005425347
558512.2600237470,-9.8042297366,0.0463867188,-0.0978088379,-0.0000434028,0.0000325521,0.0004231771
558512.2700237470,-9.8034667972,0.0399780273,-0.0959777832,-0.0000325521,-0.0000108507,-0.0005316840
558512.2800237470,-9.8048400882,0.0468444824,-0.0985717773,-0.0000434028,-0.0000434028,0.0003472222
558512.2900237470,-9.8025512699,0.0379943848,-0.1004028320,-0.0000217014,-0.0000108507,-0.0003363715
558512.3000237470,-9.8054504398,0.0483703613,-0.0973510742,-0.0000217014,-0.0000000000,0.0000759549
558512.3100237470,-9.8033142093,0.0390625000,-0.0964355469,-0.0000217014,0.0000759549,0.0000000000
558512.3200237470,-9.8042297366,0.0454711914,-0.0987243652,-0.0000217014,0.0000434028,-0.0002929687
558512.3300237471,-9.8042297366,0.0424194336,-0.0994873047,-0.0000651042,-0.0000868056,0.0002929687
558512.3400237469,-9.8039245609,0.0422668457,-0.0978088379,-0.0000325521,-0.0000542535,-0.0005099826
558512.3500237470,-9.8042297366,0.0456237793,-0.0970458984,-0.0000434028,0.0000217014,0.0004231771
558512.3600237470,-9.8034667972,0.0395202637,-0.0985717773,-0.0000325521,0.0000868056,-0.0005533854
558512.3700237470,-9.8051452640,0.0473022461,-0.0994873047,-0.0000434028,-0.0000000000,0.0003689236
558512.3800237470,-9.8037719730,0.0393676758,-0.0978088379,-0.0000108507,-0.0000976562,-0.0003797743
558512.3900237470,-9.8054504398,0.0485229492,-0.0959777832,-0.0000542535,-0.0000434028,0.0000868056
558512.4000237470,-9.8039245609,0.0376892090,-0.0985717773,-0.0000542535,0.0000976562,-0.0000325521
558512.4100237470,-9.8039245609,0.0456237793,-0.1011657715,-0.0000325521,0.0000434028,-0.0003146701
558512.4200237470,-9.8045349124,0.0427246094,-0.0982666016,-0.0000651042,-0.0000868056,0.0003797743
558512.4300237470,-9.8040771488,0.0408935547,-0.0973510742,-0.0000108507,-0.0000434028,-0.0006293403
558512.4400237470,-9.8046875003,0.0473022461,-0.0971984863,-0.0000325521,0.0000434028,0.0004991319
558512.4500237470,-9.8028564456,0.0378417969,-0.0990295410,-0.0000108507,0.0000868056,-0.0005208333
558512.4600237469,-9.8049926761,0.0491333008,-0.0988769531,-0.0000325521,-0.0000325521,0.0002604167
558512.4700237470,-9.8030090335,0.0381469727,-0.0978088379,-0.0000434028,-0.0000868056,-0.0001953125
558512.4800237470,-9.8052978519,0.0459289551,-0.0976562500,-0.0000542535,0.0000108507,-0.0001410590
558512.4900237470,-9.8034667972,0.0421142578,-0.0982666016,-0.0000542535,0.0001193576,0.0002061632
558512.5000237470,-9.8033142093,0.0431823730,-0.0987243652,-0.0000217014,-0.0000000000,-0.0004774306
558512.5100237470,-9.8043823245,0.0440979004,-0.0979614258,-0.0000217014,-0.0001519097,0.0004340278
558512.5200237470,-9.8033142093,0.0392150879,-0.0987243652,-0.0000108507,0.0000651042,-0.0005208333
558512.5300237470,-9.8043823245,0.0473022461,-0.0988769531,-0.0000542535,0.0000976562,0.0003580729
558512.5400237470,-9.8034667972,0.0398254395,-0.0985717773,-0.0000325521,-0.0000000000,-0.0004340278
558512.5500237470,-9.8051452640,0.0474548340,-0.0973510742,-0.0000542535,-0.0000976562,0.0002170139
558512.5600237470,-9.8036193851,0.0378417969,-0.0978088379,-0.0000108507,-0.0000000000,-0.0002495660
558512.5700237470,-9.8042297366,0.0476074219,-0.0997924805,-0.0000434028,0.0000542535,0.0000108507
558512.5800237471,-9.8036193851,0.0399780273,-0.0976562500,-0.0000217014,0.0000325521,0.0000108507
558512.5900237469,-9.8042297366,0.0442504883,-0.0968933106,-0.0000325521,-0.0000759549,-0.0002821181
558512.6000237470,-9.8037719730,0.0427246094,-0.0973510742,-0.0000542535,-0.0000651042,0.0002929687
558512.6100237470,-9.8042297366,0.0419616699,-0.0993347168,-0.0000108507,0.0000759549,-0.0005099826
558512.6200237470,-9.8043823245,0.0454711914,-0.0987243652,-0.0000651042,0.0000759549,0.0004448785
558512.6300237470,-9.8027038577,0.0396728516,-0.0973510742,-0.0000108507,-0.0000651042,-0.0005533854
558512.6400237470,-9.8056030277,0.0479125977,-0.0978088379,-0.0000325521,-0.0000868056,0.0003906250
558512.6500237470,-9.8019409183,0.0379943848,-0.0985717773,0.0000000000,0.0000868056,-0.0003689236
558512.6600237470,-9.8042297366,0.0479125977,-0.0981140137,-0.0000651042,0.0000759549,0.0000108507
558512.6700237470,-9.8039245609,0.0382995605,-0.0981140137,-0.0000434028,-0.0000434028,0.0000434028
558512.6800237470,-9.8045349124,0.0453186035,-0.0988769531,-0.0000217014,-0.0000976562,-0.0003689236
558512.6900237480,-9.8043823245,0.0440979004,-0.0981140137,-0.0000651042,0.0000325521,0.0003797743
558512.7000237480,-9.8033142093,0.0401306152,-0.0976562500,-0.0000108507,0.0000868056,-0.0005750868
558512.7100237480,-9.8049926761,0.0465393066,-0.0985717773,-0.0000434028,-0.0000108507,0.0004448785
558512.7200237480,-9.8033142093,0.0393676758,-0.0991821289,-0.0000108507,-0.0000976562,-0.0004991319
558512.7300237480,-9.8051452640,0.0486755371,-0.0981140137,-0.0000542535,-0.0000000000,0.0002170139
558512.7400237480,-9.8030090335,0.0379943848,-0.0979614258,-0.0000325521,0.0000651042,-0.0001627604
558512.7500237480,-9.8040771488,0.0463867188,-0.0970458984,-0.0000434028,0.0000651042,-0.0001519097
558512.7600237480,-9.8045349124,0.0415039063,-0.0979614258,-0.0000325521,-0.0000542535,0.0001844618
558512.7700237480,-9.8043823245,0.0433349609,-0.0991821289,-0.0000108507,-0.0000651042,-0.0004231771
558512.7800237481,-9.8045349124,0.0437927246,-0.0984191895,-0.0000325521,0.0000325521,0.0003580729
558512.7900237479,-9.8028564456,0.0407409668,-0.0981140137,-0.0000325521,0.0000868056,-0.0005099826
558512.8000237480,-9.8039245609,0.0469970703,-0.0976562500,-0.0000434028,-0.0000108507,0.0004231771
558512.8100237480,-9.8031616214,0.0398254395,-0.0987243652,-0.0000108507,-0.0000542535,-0.0005208333
558512.8200237480,-9.8052978519,0.0473022461,-0.0982666016,-0.0000542535,-0.0000759549,0.0003146701
558512.8300237480,-9.8036193851,0.0369262695,-0.0981140137,-0.0000217014,0.0000976562,-0.0003038194
558512.8400237480,-9.8037719730,0.0479125977,-0.0976562500,-0.0000542535,0.0000759549,0.0000108507
558512.8500237480,-9.8040771488,0.0402832031,-0.0979614258,-0.0000217014,-0.0000434028,0.0000217014
558512.8600237480,-9.8048400882,0.0440979004,-0.0988769531,-0.0000325521,-0.0000868056,-0.0003363715
558512.8700237480,-9.8043823245,0.0424194336,-0.0981140137,-0.0000651042,0.0000325521,0.0003580729
558512.8800237480,-9.8030090335,0.0416564941,-0.0985717773,-0.0000217014,0.0000759549,-0.0005642361
558512.8900237480,-9.8042297366,0.0468444824,-0.0982666016,-0.0000542535,0.0000325521,0.0004448785
558512.9000237481,-9.8033142093,0.0381469727,-0.0984191895,-0.0000217014,-0.0000651042,-0.0005533854
558512.9100237479,-9.8056030277,0.0488281250,-0.0978088379,-0.0000325521,-0.0000651042,0.0003255208
558512.9200237480,-9.8023986820,0.0381469727,-0.0978088379,-0.0000217014,0.0000868056,-0.0002604167
558512.9300237480,-9.8040771488,0.0471496582,-0.0984191895,-0.0000651042,0.0000651042,-0.0000759549
558512.9400237480,-9.8040771488,0.0396728516,-0.0985717773,-0.0000434028,-0.0000000000,0.0001085069
558512.9500237480,-9.8043823245,0.0445556641,-0.0982666016,-0.0000434028,-0.0000759549,-0.0003689236
558512.9600237480,-9.8039245609,0.0440979004,-0.0987243652,-0.0000434028,-0.0000325521,0.0003472222
558512.9700237480,-9.8030090335,0.0404357910,-0.0973510742,0.0000000000,0.0000759549,-0.0005642361
558512.9800237480,-9.8054504398,0.0469970703,-0.0982666016,-0.0000434028,0.0000542535,0.0004340278
558512.9900237480,-9.8028564456,0.0390625000,-0.0996398926,-0.0000217014,-0.0000434028,-0.0004991319
558513.0000237480,-9.8051452640,0.0489807129,-0.0976562500,-0.0000651042,-0.0000868056,0.0002712674
558513.0100237480,-9.8027038577,0.0375366211,-0.0967407227,-0.0000325521,0.0000434028,-0.0002061632
558513.0200237480,-9.8037719730,0.0476074219,-0.0981140137,-0.0000434028,0.0000759549,-0.0000868056
558513.0300237481,-9.8039245609,0.0404357910,-0.0996398926,-0.0000217014,0.0000217014,0.0001302083
558513.0400237479,-9.8045349124,0.0436401367,-0.0981140137,0.0000000000,-0.0000759549,-0.0003797743
558513.0500237480,-9.8039245609,0.0439453125,-0.0971984863,-0.0000434028,-0.0000542535,0.0003363715
558513.0600237480,-9.8037719730,0.0419616699,-0.0982666016,-0.0000217014,0.0000976562,-0.0005425347
558513.0700237480,-9.8043823245,0.0451660156,-0.0990295410,-0.0000542535,0.0000759549,0.0004231771
558513.0800237480,-9.8036193851,0.0396728516,-0.0982666016,-0.0000542535,-0.0000651042,-0.0005099826
558513.0900237480,-9.8051452640,0.0473022461,-0.0967407227,-0.0000434028,-0.0000976562,0.0003146701
558513.1000237480,-9.8030090335,0.0376892090,-0.0985717773,-0.0000325521,0.0000651042,-0.0003038194
558513.1100237480,-9.8034667972,0.0477600098,-0.0984191895,-0.0000542535,0.0000868056,0.0000325521
558513.1200237480,-9.8042297366,0.0392150879,-0.0982666016,-0.0000108507,-0.0000542535,-0.0000325521
558513.1300237480,-9.8045349124,0.0459289551,-0.0979614258,-0.0000325521,-0.0000759549,-0.0002495660
558513.1400237480,-9.8036193851,0.0424194336,-0.0984191895,-0.0000759549,0.0000108507,0.0002495660
558513.1500237481,-9.8037719730,0.0428771973,-0.0993347168,0.0000000000,0.0001193576,-0.0004774306
558513.1600237479,-9.8036193851,0.0462341309,-0.0984191895,-0.0000434028,-0.0000108507,0.0004557292
558513.1700237480,-9.8045349124,0.0396728516,-0.0976562500,-0.0000108507,-0.0001302083,-0.0006184896
558513.1800237480,-9.8045349124,0.0474548340,-0.0979614258,-0.0000542535,0.0000542535,0.0004123264
558513.1900237480,-9.8031616214,0.0379943848,-0.0990295410,-0.0000434028,0.0000976562,-0.0004123264
558513.2000237480,-9.8048400882,0.0485229492,-0.0987243652,-0.0000651042,-0.0000434028,0.0001085069
558513.2100237480,-9.8036193851,0.0392150879,-0.0973510742,-0.0000325521,-0.0000976562,-0.0000651042
558513.2200237480,-9.8045349124,0.0456237793,-0.0978088379,-0.0000325521,0.0000108507,-0.0002061632
558513.2300237480,-9.8037719730,0.0419616699,-0.0988769531,-0.0000217014,0.0000542535,0.0002387153
558513.2400237480,-9.8039245609,0.0431823730,-0.0990295410,0.0000000000,0.0000434028,-0.0004882812
558513.2500237480,-9.8043823245,0.0448608398,-0.0971984863,-0.0000325521,-0.0000759549,0.0003797743
558513.2600237480,-9.8039245609,0.0408935547,-0.0976562500,-0.0000542535,-0.0000434028,-0.0005316840
558513.2700237480,-9.8043823245,0.0459289551,-0.0982666016,-0.0000759549,0.0000434028,0.0003797743
558513.2800237481,-9.8028564456,0.0386047363,-0.0978088379,-0.0000217014,0.0000976562,-0.0004231771
558513.2900237479,-9.8052978519,0.0482177734,-0.0981140137,-0.0000217014,-0.0000976562,0.0002061632
558513.3000237480,-9.8037719730,0.0382995605,-0.0982666016,0.0000000000,-0.0000542535,-0.0001627604
558513.3100237480,-9.8042297366,0.0462341309,-0.0987243652,-0.0000325521,0.0000651042,-0.0001410590
558513.3200237480,-9.8036193851,0.0416564941,-0.0979614258,-0.0000434028,0.0000868056,0.0001627604
558513.3300237480,-9.8039245609,0.0436401367,-0.0976562500,-0.0000434028,-0.0001085069,-0.0004231771
558513.3400237480,-9.8045349124,0.0444030762,-0.0978088379,-0.0000759549,-0.0000651042,0.0004231771
558513.3500237480,-9.8033142093,0.0398254395,-0.0988769531,-0.0000217014,0.0001302083,-0.0005859375
558513.3600237480,-9.8043823245,0.0474548340,-0.0984191895,-0.0000434028,0.0000217014,0.0004557292
558513.3700237480,-9.8036193851,0.0379943848,-0.0981140137,0.0000000000,-0.0001085069,-0.0004882812
558513.3800237480,-9.8049926761,0.0482177734,-0.0975036621,-0.0000325521,-0.0000000000,0.0001627604
558513.3900237480,-9.8031616214,0.0382995605,-0.0988769531,-0.0000434028,0.0000976562,-0.0000868056
558513.4000237481,-9.8048400882,0.0459289551,-0.0994873047,-0.0000434028,0.0000108507,-0.0002821181
558513.4100237479,-9.8048400882,0.0431823730,-0.0976562500,-0.0000542535,-0.0000868056,0.0003580729
558513.4200237480,-9.8036193851,0.0416564941,-0.0968933106,-0.0000217014,-0.0000325521,-0.0005642361
558513.4300237480,-9.8045349124,0.0462341309,-0.0981140137,-0.0000325521,0.0000759549,0.0004665799
558513.4400237480,-9.8023986820,0.0390625000,-0.0988769531,-0.0000217014,0.0000434028,-0.0005425347
558513.4500237480,-9.8052978519,0.0488281250,-0.0984191895,-0.0000325521,-0.0000976562,0.0002929687
558513.4600237480,-9.8028564456,0.0386047363,-0.0981140137,-0.0000325521,-0.0000108507,-0.0003038194
558513.4700237480,-9.8046875003,0.0482177734,-0.0976562500,-0.0000542535,0.0000434028,0.0000108507
558513.4800237480,-9.8030090335,0.0395202637,-0.0985717773,-0.0000542535,0.0000434028,0.0000217014
558513.4900237480,-9.8045349124,0.0447082520,-0.0985717773,-0.0000325521,-0.0000976562,-0.0002604167
558513.5000237480,-9.8043823245,0.0433349609,-0.0979614258,-0.0000325521,-0.0000434028,0.0003038194
558513.5100237480,-9.8034667972,0.0410461426,-0.0973510742,0.0000000000,0.0001085069,-0.0005642361
558513.5200237480,-9.8040771488,0.0462341309,-0.0984191895,-0.0000325521,0.0000325521,0.0005099826
558513.5300237481,-9.8031616214,0.0384521484,-0.0984191895,-0.0000325521,-0.0001302083,-0.0005967882
558513.5400237479,-9.8056030277,0.0492858887,-0.0976562500,-0.0000542535,-0.0000000000,0.0003363715
558513.5500237480,-9.8025512699,0.0369262695,-0.0979614258,-0.0000434028,0.0001193576,-0.0002387153
558513.5600237480,-9.8045349124,0.0468444824,-0.0982666016,-0.0000217014,-0.0000000000,-0.0000868056
558513.5700237480,-9.8039245609,0.0407409668,-0.0985717773,-0.0000217014,-0.0001193576,0.0001844618
558513.5800237480,-9.8042297366,0.0444030762,-0.0976562500,-0.0000217014,0.0000434028,-0.0004665799
558513.5900237480,-9.8042297366,0.0440979004,-0.0975036621,-0.0000542535,0.0000759549,0.0004123264
558513.6000237480,-9.8037719730,0.0392150879,-0.0999450684,-0.0000434028,-0.0000542535,-0.0005859375
558513.6100237480,-9.8054504398,0.0474548340,-0.0990295410,-0.0000542535,-0.0000759549,0.0004340278
558513.6200237480,-9.8027038577,0.0389099121,-0.0979614258,-0.0000217014,0.0000976562,-0.0004340278
558513.6300237480,-9.8042297366,0.0473022461,-0.0973510742,-0.0000325521,0.0000759549,0.0001844618
558513.6400237480,-9.8045349124,0.0379943848,-0.0991821289,-0.0000217014,-0.0001410590,-0.0001410590
558513.6500237481,-9.8043823245,0.0468444824,-0.0991821289,-0.0000217014,-0.0000000000,-0.0001193576
558513.6600237479,-9.8034667972,0.0411987305,-0.0961303711,-0.0000325521,0.0001193576,0.0001193576
558513.6700237480,-9.8030090335,0.0436401367,-0.0994873047,-0.0000542535,-0.0000000000,-0.0004014757
558513.6800237480,-9.8051452640,0.0439453125,-0.0988769531,-0.0000542535,-0.0001193576,0.0003906250
558513.6900237480,-9.8030090335,0.0408935547,-0.0979614258,-0.0000217014,0.0000325521,-0.0005533854
558513.7000237480,-9.8045349124,0.0468444824,-0.0968933106,-0.0000325521,0.0000542535,0.0004231771
558513.7100237480,-9.8033142093,0.0386047363,-0.0996398926,-0.0000108507,-0.0000108507,-0.0004991319
558513.7200237480,-9.8049926761,0.0479125977,-0.0996398926,-0.0000325521,-0.0000651042,0.0002712674
558513.7300237480,-9.8027038577,0.0386047363,-0.0970458984,-0.0000434028,0.0000868056,-0.0002495660
558513.7400237480,-9.8036193851,0.0482177734,-0.0968933106,-0.0000651042,0.0000434028,0.0000000000
558513.7500237480,-9.8037719730,0.0389099121,-0.0996398926,-0.0000325521,-0.0001193576,0.0000217014
558513.7600237490,-9.8048400882,0.0447082520,-0.0997924805,-0.0000217014,0.0000108507,-0.0002604167
558513.7700237490,-9.8034667972,0.0424194336,-0.0968933106,-0.0000325521,0.0000759549,0.0002712674
558513.7800237490,-9.8034667972,0.0424194336,-0.0973510742,0.0000000000,-0.0000542535,-0.0005208333
558513.7900237490,-9.8051452640,0.0450134277,-0.0994873047,-0.0000434028,-0.0000434028,0.0004448785
558513.8000237490,-9.8027038577,0.0390625000,-0.0997924805,-0.0000325521,0.0000868056,-0.0005533854
558513.8100237490,-9.8046875003,0.0480651855,-0.0971984863,-0.0000434028,-0.0000434028,0.0003472222
558513.8200237490,-9.8034667972,0.0387573242,-0.0979614258,-0.0000434028,-0.0000000000,-0.0003363715
558513.8300237490,-9.8040771488,0.0476074219,-0.0987243652,-0.0000434028,0.0000434028,0.0000434028
558513.8400237490,-9.8033142093,0.0393676758,-0.0994873047,-0.0000108507,-0.0000542535,0.0000217014
558513.8500237491,-9.8042297366,0.0453186035,-0.0975036621,-0.0000108507,0.0000217014,-0.0003363715
558513.8600237489,-9.8051452640,0.0439453125,-0.0970458984,-0.0000542535,-0.0000000000,0.0003038194
558513.8700237490,-9.8033142093,0.0410461426,-0.0987243652,-0.0000217014,-0.0000000000,-0.0005208333
558513.8800237490,-9.8039245609,0.0460815430,-0.0990295410,-0.0000542535,-0.0000000000,0.0004340278
558513.8900237490,-9.8034667972,0.0396728516,-0.0978088379,-0.0000325521,-0.0000000000,-0.0005316840
558513.9000237490,-9.8046875003,0.0477600098,-0.0970458984,-0.0000325521,-0.0000000000,0.0003580729
558513.9100237490,-9.8030090335,0.0382995605,-0.0993347168,0.0000108507,0.0000217014,-0.0003906250
558513.9200237490,-9.8052978519,0.0482177734,-0.0985717773,-0.0000325521,-0.0000000000,0.0001193576
558513.9300237490,-9.8042297366,0.0392150879,-0.0975036621,-0.0000651042,0.0000108507,-0.0000651042
558513.9400237490,-9.8039245609,0.0462341309,-0.0970458984,-0.0000434028,-0.0000000000,-0.0002821181
558513.9500237490,-9.8033142093,0.0424194336,-0.0984191895,-0.0000542535,-0.0000000000,0.0003363715
558513.9600237490,-9.8033142093,0.0408935547,-0.0987243652,-0.0000108507,0.0000108507,-0.0005208333
558513.9700237490,-9.8046875003,0.0468444824,-0.0979614258,-0.0000325521,-0.0000000000,0.0004448785
558513.9800237491,-9.8031616214,0.0396728516,-0.0978088379,-0.0000217014,0.0000108507,-0.0005642361
558513.9900237489,-9.8045349124,0.0473022461,-0.0976562500,-0.0000434028,-0.0000000000,0.0003255208
558514.0000237490,-9.8033142093,0.0378417969,-0.0988769531,-0.0000325521,-0.0000108507,-0.0003038194
558514.0100237490,-9.8046875003,0.0480651855,-0.0982666016,-0.0000542535,0.0000217014,0.0000542535
558514.0200237490,-9.8037719730,0.0402832031,-0.0976562500,-0.0000542535,-0.0000108507,-0.0000217014
558514.0300237490,-9.8046875003,0.0453186035,-0.0982666016,-0.0000108507,0.0000108507,-0.0002604167
558514.0400237490,-9.8039245609,0.0415039063,-0.0993347168,-0.0000434028,0.0000108507,0.0003038194
558514.0500237490,-9.8034667972,0.0419616699,-0.0978088379,-0.0000108507,-0.0000108507,-0.0005208333
558514.0600237490,-9.8051452640,0.0465393066,-0.0973510742,-0.0000542535,-0.0000000000,0.0004448785
558514.0700237490,-9.8033142093,0.0393676758,-0.0984191895,-0.0000325521,0.0000325521,-0.0005859375
558514.0800237490,-9.8046875003,0.0469970703,-0.0987243652,-0.0000759549,-0.0000325521,0.0003906250
558514.0900237490,-9.8028564456,0.0387573242,-0.0981140137,-0.0000217014,-0.0000000000,-0.0003255208
558514.1000237491,-9.8042297366,0.0491333008,-0.0975036621,-0.0000325521,-0.0000000000,0.0000325521
558514.1100237489,-9.8036193851,0.0387573242,-0.0978088379,-0.0000217014,-0.0000325521,0.0000108507
558514.1200237490,-9.8042297366,0.0444030762,-0.0991821289,-0.0000217014,0.0000217014,-0.0003363715
558514.1300237490,-9.8037719730,0.0440979004,-0.0979614258,-0.0000542535,-0.0000108507,0.0003472222
558514.1400237490,-9.8037719730,0.0413513184,-0.0973510742,-0.0000325521,-0.0000000000,-0.0005533854
558514.1500237490,-9.8043823245,0.0460815430,-0.0979614258,-0.0000434028,0.0000217014,0.0004340278
558514.1600237490,-9.8025512699,0.0389099121,-0.0988769531,-0.0000217014,-0.0000325521,-0.0005316840
558514.1700237490,-9.8051452640,0.0479125977,-0.0981140137,-0.0000325521,-0.0000000000,0.0003363715
558514.1800237490,-9.8022460941,0.0382995605,-0.0979614258,0.0000000000,-0.0000000000,-0.0003255208
558514.1900237490,-9.8043823245,0.0480651855,-0.0976562500,-0.0000434028,-0.0000108507,0.0000542535
558514.2000237490,-9.8040771488,0.0387573242,-0.0982666016,-0.0000434028,-0.0000000000,0.0000000000
558514.2100237490,-9.8043823245,0.0465393066,-0.0985717773,-0.0000434028,-0.0000000000,-0.0003038194
558514.2200237490,-9.8036193851,0.0424194336,-0.0973510742,-0.0000651042,-0.0000108507,0.0003146701
558514.2300237491,-9.8036193851,0.0402832031,-0.0982666016,0.0000000000,0.0000325521,-0.0005750868
558514.2400237489,-9.8052978519,0.0469970703,-0.0985717773,-0.0000217014,-0.0000325521,0.0005099826
558514.2500237490,-9.8031616214,0.0389099121,-0.0985717773,-0.0000108507,0.0000108507,-0.0005750868
558514.2600237490,-9.8049926761,0.0480651855,-0.0968933106,-0.0000542535,-0.0000000000,0.0002929687
558514.2700237490,-9.8031616214,0.0373840332,-0.0978088379,-0.0000434028,0.0000108507,-0.0002387153
558514.2800237490,-9.8046875003,0.0474548340,-0.0991821289,-0.0000542535,-0.0000108507,-0.0000217014
558514.2900237490,-9.8040771488,0.0408935547,-0.0984191895,-0.0000325521,0.0000108507,0.0000325521
558514.3000237490,-9.8040771488,0.0447082520,-0.0975036621,-0.0000217014,-0.0000108507,-0.0003038194
558514.3100237490,-9.8036193851,0.0427246094,-0.0976562500,-0.0000325521,0.0000217014,0.0002604167
558514.3200237490,-9.8037719730,0.0427246094,-0.0990295410,-0.0000108507,0.0000108507,-0.0004665799
558514.3300237490,-9.8042297366,0.0454711914,-0.0987243652,-0.0000651042,-0.0000000000,0.0004123264
558514.3400237490,-9.8033142093,0.0405883789,-0.0973510742,-0.0000542535,0.0000108507,-0.0005642361
558514.3500237491,-9.8051452640,0.0463867188,-0.0973510742,-0.0000542535,-0.0000000000,0.0003906250
558514.3600237489,-9.8027038577,0.0384521484,-0.0990295410,-0.0000217014,-0.0000000000,-0.0004340278
558514.3700237490,-9.8045349124,0.0488281250,-0.0982666016,-0.0000325521,0.0000108507,0.0002061632
558514.3800237490,-9.8034667972,0.0379943848,-0.0975036621,-0.0000108507,-0.0000000000,-0.0002061632
558514.3900237490,-9.8045349124,0.0468444824,-0.0975036621,-0.0000217014,0.0000108507,-0.0000759549
558514.4000237490,-9.8042297366,0.0408935547,-0.0985717773,-0.0000542535,0.0000108507,0.0000976562
558514.4100237490,-9.8039245609,0.0457763672,-0.0993347168,-0.0000434028,-0.0000000000,-0.0003472222
558514.4200237490,-9.8042297366,0.0433349609,-0.0971984863,-0.0000651042,-0.0000325521,0.0003689236
558514.4300237490,-9.8031616214,0.0410461426,-0.0971984863,-0.0000108507,0.0000325521,-0.0005967882
558514.4400237490,-9.8039245609,0.0474548340,-0.0985717773,-0.0000325521,-0.0000217014,0.0004774306
558514.4500237490,-9.8033142093,0.0379943848,-0.0988769531,-0.0000108507,0.0000108507,-0.0005533854
558514.4600237490,-9.8045349124,0.0483703613,-0.0976562500,-0.0000325521,-0.0000000000,0.0002712674
558514.4700237490,-9.8028564456,0.0378417969,-0.0979614258,-0.0000542535,0.0000108507,-0.0002061632
558514.4800237491,-9.8049926761,0.0473022461,-0.0985717773,-0.0000434028,0.0000108507,-0.0001085069
558514.4900237489,-9.8046875003,0.0416564941,-0.0994873047,-0.0000651042,-0.0000108507,0.0001953125
558514.5000237490,-9.8039245609,0.0425720215,-0.0982666016,-0.0000108507,-0.0000108507,-0.0004991319
558514.5100237490,-9.8037719730,0.0454711914,-0.0968933106,-0.0000325521,0.0000217014,0.0004340278
558514.5200237490,-9.8030090335,0.0396728516,-0.0990295410,-0.0000108507,-0.0000000000,-0.0005750868
558514.5300237490,-9.8052978519,0.0479125977,-0.0987243652,-0.0000434028,-0.0000000000,0.0003689236
558514.5400237490,-9.8027038577,0.0387573242,-0.0981140137,-0.0000542535,0.0000108507,-0.0004014757
558514.5500237490,-9.8054504398,0.0473022461,-0.0976562500,-0.0000542535,-0.0000000000,0.0001193576
558514.5600237490,-9.8037719730,0.0390625000,-0.0981140137,-0.0000217014,0.0000108507,-0.0000434028
558514.5700237490,-9.8036193851,0.0465393066,-0.0990295410,-0.0000325521,0.0000108507,-0.0002495660
558514.5800237490,-9.8046875003,0.0422668457,-0.0984191895,-0.0000325521,-0.0000325521,0.0002712674
558514.5900237490,-9.8036193851,0.0416564941,-0.0978088379,0.0000000000,0.0000217014,-0.0005099826
558514.6000237491,-9.8052978519,0.0457763672,-0.0982666016,-0.0000542535,-0.0000000000,0.0004123264
558514.6100237489,-9.8030090335,0.0401306152,-0.0988769531,-0.0000434028,-0.0000108507,-0.0005425347
558514.6200237490,-9.8048400882,0.0462341309,-0.0967407227,-0.0000434028,0.0000108507,0.0003906250
558514.6300237490,-9.8025512699,0.0386047363,-0.0982666016,-0.0000325521,-0.0000000000,-0.0004340278
558514.6400237490,-9.8045349124,0.0486755371,-0.0996398926,-0.0000217014,-0.0000108507,0.0001953125
558514.6500237490,-9.8034667972,0.0386047363,-0.0985717773,-0.0000108507,-0.0000000000,-0.0001736111
558514.6600237490,-9.8039245609,0.0469970703,-0.0971984863,-0.0000434028,-0.0000000000,-0.0000759549
558514.6700237490,-9.8036193851,0.0405883789,-0.0971984863,-0.0000434028,0.0000217014,0.0001302083
558514.6800237490,-9.8043823245,0.0437927246,-0.0991821289,-0.0000542535,-0.0000000000,-0.0003906250
558514.6900237490,-9.8040771488,0.0448608398,-0.0994873047,-0.0000434028,-0.0000108507,0.0003906250
558514.7000237490,-9.8034667972,0.0399780273,-0.0975036621,-0.0000217014,-0.0000000000,-0.0005859375
558514.7100237490,-9.8043823245,0.0468444824,-0.0973510742,-0.0000325521,-0.0000000000,0.0004448785
558514.7200237490,-9.8036193851,0.0382995605,-0.0994873047,-0.0000108507,-0.0000000000,-0.0005099826
558514.7300237491,-9.8052978519,0.0489807129,-0.0985717773,-0.0000542535,-0.0000000000,0.0002495660
558514.7400237489,-9.8034667972,0.0378417969,-0.0978088379,-0.0000434028,-0.0000000000,-0.0001519097
558514.7500237490,-9.8048400882,0.0462341309,-0.0981140137,-0.0000542535,0.0000108507,-0.0001302083
558514.7600237490,-9.8036193851,0.0416564941,-0.0982666016,-0.0000217014,-0.0000000000,0.0002170139
558514.7700237490,-9.8039245609,0.0430297852,-0.0988769531,-0.0000108507,-0.0000108507,-0.0005425347
558514.7800237490,-9.8049926761,0.0450134277,-0.0976562500,-0.0000325521,-0.0000000000,0.0004448785
558514.7900237490,-9.8037719730,0.0401306152,-0.0975036621,-0.0000217014,0.0000217014,-0.0005642361
558514.8000237490,-9.8046875003,0.0479125977,-0.0987243652,-0.0000542535,-0.0000108507,0.0003797743
558514.8100237490,-9.8023986820,0.0378417969,-0.0990295410,-0.0000217014,0.0000108507,-0.0004014757
558514.8200237490,-9.8046875003,0.0479125977,-0.0979614258,-0.0000542535,-0.0000000000,0.0001193576
558514.8300237490,-9.8033142093,0.0395202637,-0.0976562500,-0.0000325521,-0.0000000000,-0.0000325521
558514.8400237500,-9.8043823245,0.0460815430,-0.0984191895,-0.0000325521,0.0000108507,-0.0003038194
558514.8500237500,-9.8046875003,0.0422668457,-0.0982666016,-0.0000325521,0.0000217014,0.0003363715
558514.8600237500,-9.8042297366,0.0408935547,-0.0979614258,-0.0000108507,-0.0000108507,-0.0005642361
558514.8700237500,-9.8049926761,0.0473022461,-0.0979614258,-0.0000434028,-0.0000000000,0.0005099826
558514.8800237500,-9.8033142093,0.0386047363,-0.0984191895,-0.0000434028,-0.0000000000,-0.0005642361
558514.8900237500,-9.8043823245,0.0480651855,-0.0987243652,-0.0000542535,-0.0000108507,0.0002821181
558514.9000237500,-9.8033142093,0.0376892090,-0.0979614258,-0.0000325521,-0.0000000000,-0.0002495660
558514.9100237500,-9.8046875003,0.0476074219,-0.0976562500,-0.0000434028,0.0000108507,-0.0000651042
558514.9200237500,-9.8040771488,0.0405883789,-0.0984191895,-0.0000325521,-0.0000108507,0.0001410590
558514.9300237501,-9.8040771488,0.0433349609,-0.0984191895,-0.0000217014,0.0000108507,-0.0004665799
558514.9400237500,-9.8049926761,0.0444030762,-0.0978088379,-0.0000542535,-0.0000108507,0.0004557292
558514.9500237500,-9.8030090335,0.0399780273,-0.0978088379,-0.0000325521,-0.0000000000,-0.0006184896
558514.9600237500,-9.8049926761,0.0483703613,-0.0981140137,-0.0000542535,-0.0000000000,0.0004448785
558514.9700237500,-9.8036193851,0.0370788574,-0.0981140137,0.0000000000,-0.0000000000,-0.0004340278
558514.9800237500,-9.8051452640,0.0482177734,-0.0976562500,-0.0000217014,-0.0000000000,0.0001302083
558514.9900237500,-9.8034667972,0.0399780273,-0.0978088379,-0.0000325521,0.0000108507,-0.0000542535
558515.0000237500,-9.8042297366,0.0460815430,-0.0982666016,-0.0000325521,-0.0000000000,-0.0002821181
558515.0100237500,-9.8042297366,0.0416564941,-0.0979614258,-0.0000651042,-0.0000000000,0.0003038194
558515.0200237500,-9.8030090335,0.0416564941,-0.0978088379,-0.0000325521,-0.0000000000,-0.0005099826
558515.0300237500,-9.8043823245,0.0460815430,-0.0978088379,-0.0000434028,-0.0000000000,0.0004340278
558515.0400237500,-9.8037719730,0.0389099121,-0.0990295410,-0.0000325521,0.0000108507,-0.0005642361
558515.0500237501,-9.8048400882,0.0468444824,-0.0978088379,-0.0000542535,-0.0000000000,0.0003363715
558515.0600237499,-9.8031616214,0.0381469727,-0.0976562500,-0.0000217014,0.0000108507,-0.0003472222
558515.0700237500,-9.8040771488,0.0492858887,-0.0981140137,-0.0000651042,0.0000108507,0.0000759549
558515.0800237500,-9.8039245609,0.0392150879,-0.0987243652,-0.0000434028,-0.0000108507,-0.0000325521
558515.0900237500,-9.8043823245,0.0444030762,-0.0984191895,-0.0000325521,-0.0000000000,-0.0002929687
558515.1000237500,-9.8039245609,0.0421142578,-0.0975036621,-0.0000434028,0.0000108507,0.0003038194
558515.1100237500,-9.8037719730,0.0437927246,-0.0984191895,0.0000000000,-0.0000108507,-0.0005533854
558515.1200237500,-9.8046875003,0.0459289551,-0.0987243652,-0.0000325521,0.0000217014,0.0004448785
558515.1300237500,-9.8031616214,0.0376892090,-0.0981140137,-0.0000217014,-0.0000000000,-0.0005642361
558515.1400237500,-9.8048400882,0.0482177734,-0.0976562500,-0.0000542535,-0.0000325521,0.0003797743
558515.1500237500,-9.8028564456,0.0390625000,-0.0975036621,-0.0000542535,0.0000108507,-0.0003797743
558515.1600237500,-9.8046875003,0.0480651855,-0.0981140137,-0.0000434028,-0.0000000000,0.0000759549
558515.1700237500,-9.8034667972,0.0378417969,-0.0987243652,-0.0000217014,-0.0000000000,-0.0000217014
558515.1800237501,-9.8045349124,0.0468444824,-0.0979614258,-0.0000217014,0.0000217014,-0.0002604167
558515.1900237500,-9.8037719730,0.0434875488,-0.0978088379,-0.0000542535,-0.0000000000,0.0002712674
558515.2000237500,-9.8042297366,0.0421142578,-0.0987243652,-0.0000325521,0.0000217014,-0.0004882812
558515.2100237500,-9.8045349124,0.0440979004,-0.0984191895,-0.0000759549,-0.0000000000,0.0004123264
558515.2200237500,-9.8031616214,0.0401306152,-0.0979614258,-0.0000325521,-0.0000108507,-0.0005533854
558515.2300237500,-9.8051452640,0.0483703613,-0.0981140137,-0.0000325521,0.0000108507,0.0003906250
558515.2400237500,-9.8031616214,0.0379943848,-0.0987243652,-0.0000108507,-0.0000000000,-0.0004557292
558515.2500237500,-9.8045349124,0.0476074219,-0.0973510742,-0.0000217014,-0.0000000000,0.0001844618
558515.2600237500,-9.8030090335,0.0389099121,-0.0978088379,-0.0000325521,0.0000108507,-0.0001302083
558515.2700237500,-9.8037719730,0.0471496582,-0.0982666016,-0.0000325521,-0.0000000000,-0.0001519097
558515.2800237500,-9.8034667972,0.0419616699,-0.0985717773,-0.0000542535,-0.0000000000,0.0002061632
558515.2900237500,-9.8040771488,0.0421142578,-0.0984191895,-0.0000217014,0.0000108507,-0.0004340278
558515.3000237501,-9.8042297366,0.0450134277,-0.0979614258,-0.0000325521,-0.0000108507,0.0003580729
558515.3100237499,-9.8040771488,0.0419616699,-0.0979614258,-0.0000108507,0.0000217014,-0.0005099826
558515.3200237500,-9.8046875003,0.0453186035,-0.0978088379,-0.0000217014,-0.0000000000,0.0003689236
558515.3300237500,-9.8037719730,0.0390625000,-0.0987243652,-0.0000108507,-0.0000000000,-0.0004991319
558515.3400237500,-9.8048400882,0.0483703613,-0.0973510742,-0.0000434028,-0.0000000000,0.0003255208
558515.3500237500,-9.8034667972,0.0381469727,-0.0981140137,-0.0000542535,0.0000108507,-0.0003038194
558515.3600237500,-9.8042297366,0.0479125977,-0.0984191895,-0.0000434028,-0.0000325521,0.0000108507
558515.3700237500,-9.8036193851,0.0402832031,-0.0984191895,-0.0000325521,0.0000108507,0.0000108507
558515.3800237500,-9.8043823245,0.0456237793,-0.0981140137,-0.0000217014,-0.0000108507,-0.0003146701
558515.3900237500,-9.8037719730,0.0428771973,-0.0970458984,-0.0000542535,-0.0000000000,0.0003038194
558515.4000237500,-9.8033142093,0.0413513184,-0.0979614258,-0.0000325521,-0.0000000000,-0.0005425347
558515.4100237500,-9.8040771488,0.0459289551,-0.0988769531,-0.0000651042,-0.0000000000,0.0004448785
558515.4200237500,-9.8037719730,0.0392150879,-0.0976562500,-0.0000325521,0.0000108507,-0.0005642361
558515.4300237501,-9.8049926761,0.0476074219,-0.0976562500,-0.0000434028,-0.0000000000,0.0003363715
558515.4400237500,-9.8033142093,0.0379943848,-0.0981140137,-0.0000217014,-0.0000000000,-0.0003689236
558515.4500237500,-9.8045349124,0.0479125977,-0.0990295410,-0.0000434028,-0.0000000000,0.0001193576
558515.4600237500,-9.8040771488,0.0396728516,-0.0982666016,-0.0000325521,-0.0000000000,-0.0001193576
558515.4700237500,-9.8040771488,0.0460815430,-0.0978088379,-0.0000434028,-0.0000000000,-0.0001410590
558515.4800237500,-9.8040771488,0.0405883789,-0.0978088379,-0.0000542535,-0.0000000000,0.0001627604
558515.4900237500,-9.8043823245,0.0440979004,-0.0984191895,-0.0000108507,-0.0000000000,-0.0003797743
558515.5000237500,-9.8042297366,0.0445556641,-0.0982666016,-0.0000434028,-0.0000108507,0.0003797743
558515.5100237500,-9.8028564456,0.0404357910,-0.0981140137,-0.0000108507,0.0000108507,-0.0005967882
558515.5200237500,-9.8056030277,0.0460815430,-0.0978088379,-0.0000434028,-0.0000000000,0.0004557292
558515.5300237500,-9.8028564456,0.0386047363,-0.0988769531,-0.0000217014,0.0000108507,-0.0004882812
558515.5400237500,-9.8046875003,0.0485229492,-0.0976562500,-0.0000651042,-0.0000108507,0.0002278646
558515.5500237501,-9.8034667972,0.0384521484,-0.0975036621,-0.0000434028,-0.0000000000,-0.0001736111
558515.5600237499,-9.8049926761,0.0465393066,-0.0988769531,-0.0000325521,-0.0000108507,-0.0000759549
558515.5700237500,-9.8036193851,0.0407409668,-0.0987243652,-0.0000325521,0.0000108507,0.0000759549
558515.5800237500,-9.8034667972,0.0450134277,-0.0976562500,-0.0000217014,-0.0000000000,-0.0003146701
558515.5900237500,-9.8043823245,0.0431823730,-0.0975036621,-0.0000542535,0.0000108507,0.0003472222
558515.6000237500,-9.8036193851,0.0411987305,-0.0987243652,-0.0000325521,-0.0000000000,-0.0005642361
558515.6100237500,-9.8045349124,0.0463867188,-0.0990295410,-0.0000651042,-0.0000000000,0.0004557292
558515.6200237500,-9.8028564456,0.0384521484,-0.0976562500,-0.0000325521,-0.0000000000,-0.0005750868
558515.6300237500,-9.8051452640,0.0485229492,-0.0973510742,-0.0000325521,-0.0000000000,0.0003255208
558515.6400237500,-9.8030090335,0.0378417969,-0.0988769531,-0.0000325521,-0.0000000000,-0.0002170139
558515.6500237500,-9.8040771488,0.0473022461,-0.0990295410,-0.0000217014,0.0000108507,-0.0001193576
558515.6600237500,-9.8036193851,0.0407409668,-0.0973510742,-0.0000325521,-0.0000108507,0.0002061632
558515.6700237500,-9.8040771488,0.0434875488,-0.0970458984,-0.0000108507,0.0000325521,-0.0004774306
558515.6800237501,-9.8049926761,0.0450134277,-0.0987243652,-0.0000651042,-0.0000000000,0.0004340278
558515.6900237500,-9.8030090335,0.0396728516,-0.0993347168,-0.0000108507,-0.0000000000,-0.0005967882
558515.7000237500,-9.8049926761,0.0477600098,-0.0971984863,-0.0000434028,-0.0000000000,0.0003906250
558515.7100237500,-9.8031616214,0.0369262695,-0.0973510742,-0.0000217014,0.0000108507,-0.0004014757
558515.7200237500,-9.8048400882,0.0482177734,-0.0981140137,-0.0000542535,0.0000108507,0.0001193576
558515.7300237500,-9.8039245609,0.0393676758,-0.0996398926,-0.0000542535,0.0000108507,-0.0000325521
558515.7400237500,-9.8033142093,0.0448608398,-0.0982666016,-0.0000325521,-0.0000000000,-0.0002821181
558515.7500237500,-9.8049926761,0.0422668457,-0.0968933106,-0.0000651042,-0.0000000000,0.0003038194
558515.7600237500,-9.8034667972,0.0431823730,-0.0979614258,-0.0000108507,0.0000108507,-0.0005425347
558515.7700237500,-9.8042297366,0.0459289551,-0.0994873047,-0.0000325521,-0.0000108507,0.0004340278
558515.7800237500,-9.8033142093,0.0386047363,-0.0984191895,-0.0000108507,-0.0000000000,-0.0005533854
558515.7900237500,-9.8049926761,0.0476074219,-0.0975036621,-0.0000651042,0.0000325521,0.0003580729
558515.8000237501,-9.8031616214,0.0389099121,-0.0984191895,-0.0000434028,-0.0000000000,-0.0003797743
558515.8100237499,-9.8040771488,0.0485229492,-0.0985717773,-0.0000542535,-0.0000000000,0.0001193576
558515.8200237500,-9.8042297366,0.0384521484,-0.0985717773,-0.0000217014,-0.0000108507,-0.0001519097
558515.8300237500,-9.8040771488,0.0462341309,-0.0971984863,-0.0000217014,-0.0000325521,-0.0001302083
558515.8400237500,-9.8033142093,0.0419616699,-0.0973510742,-0.0000434028,0.0000108507,0.0000976562
558515.8500237500,-9.8042297366,0.0439453125,-0.0987243652,-0.0000217014,0.0000108507,-0.0003255208
558515.8600237500,-9.8039245609,0.0421142578,-0.0987243652,-0.0000542535,-0.0000325521,0.0003038194
558515.8700237500,-9.8036193851,0.0418090820,-0.0976562500,-0.0000108507,0.0000217014,-0.0005099826
558515.8800237500,-9.8046875003,0.0459289551,-0.0975036621,-0.0000542535,-0.0000108507,0.0004448785
558515.8900237500,-9.8033142093,0.0389099121,-0.0988769531,-0.0000325521,-0.0000000000,-0.0005642361
558515.9000237500,-9.8051452640,0.0477600098,-0.0978088379,-0.0000434028,-0.0000000000,0.0003472222
558515.9100237510,-9.8028564456,0.0381469727,-0.0979614258,-0.0000108507,-0.0000000000,-0.0003689236
558515.9200237510,-9.8045349124,0.0479125977,-0.0978088379,-0.0000325521,-0.0000000000,0.0000759549
558515.9300237510,-9.8036193851,0.0390625000,-0.0979614258,-0.0000325521,-0.0000000000,0.0000217014
558515.9400237510,-9.8040771488,0.0454711914,-0.0994873047,-0.0000217014,-0.0000000000,-0.0003363715
558515.9500237510,-9.8037719730,0.0430297852,-0.0979614258,-0.0000651042,-0.0000000000,0.0003797743
558515.9600237510,-9.8036193851,0.0398254395,-0.0971984863,-0.0000108507,-0.0000000000,-0.0006184896
558515.9700237510,-9.8046875003,0.0471496582,-0.0991821289,-0.0000325521,-0.0000000000,0.0004774306
558515.9800237510,-9.8030090335,0.0386047363,-0.0976562500,-0.0000325521,-0.0000000000,-0.0005425347
558515.9900237510,-9.8048400882,0.0482177734,-0.0976562500,-0.0000542535,0.0000217014,0.0002929687
558516.0000237511,-9.8033142093,0.0387573242,-0.0993347168,-0.0000325521,-0.0000325521,-0.0002170139
558516.0100237509,-9.8046875003,0.0468444824,-0.0979614258,-0.0000434028,0.0000108507,-0.0000651042
558516.0200237510,-9.8040771488,0.0407409668,-0.0973510742,-0.0000542535,-0.0000000000,0.0000976562
558516.0300237510,-9.8043823245,0.0447082520,-0.0984191895,-0.0000217014,-0.0000000000,-0.0003363715
558516.0400237510,-9.8043823245,0.0436401367,-0.0997924805,-0.0000434028,-0.0000000000,0.0002821181
558516.0500237510,-9.8036193851,0.0416564941,-0.0981140137,0.0000000000,-0.0000000000,-0.0004991319
558516.0600237510,-9.8043823245,0.0451660156,-0.0971984863,-0.0000542535,-0.0000000000,0.0004231771
558516.0700237510,-9.8028564456,0.0407409668,-0.0984191895,-0.0000325521,0.0000217014,-0.0005099826
558516.0800237510,-9.8046875003,0.0471496582,-0.0990295410,-0.0000434028,-0.0000325521,0.0003472222
558516.0900237510,-9.8039245609,0.0386047363,-0.0985717773,-0.0000325521,-0.0000000000,-0.0004231771
558516.1000237510,-9.8043823245,0.0469970703,-0.0961303711,-0.0000434028,-0.0000000000,0.0002061632
558516.1100237510,-9.8039245609,0.0395202637,-0.0978088379,-0.0000217014,0.0000108507,-0.0001953125
558516.1200237510,-9.8042297366,0.0474548340,-0.1005554199,-0.0000217014,-0.0000325521,-0.0000759549
558516.1300237509,-9.8039245609,0.0395202637,-0.0976562500,-0.0000651042,0.0000108507,0.0000542535
558516.1400237510,-9.8039245609,0.0444030762,-0.0973510742,-0.0000217014,-0.0000108507,-0.0002929687
558516.1500237510,-9.8045349124,0.0437927246,-0.0982666016,-0.0000651042,0.0000108507,0.0002604167
558516.1600237510,-9.8034667972,0.0419616699,-0.0999450684,-0.0000217014,-0.0000000000,-0.0004774306
558516.1700237510,-9.8054504398,0.0439453125,-0.0982666016,-0.0000325521,-0.0000000000,0.0003797743
558516.1800237510,-9.8027038577,0.0405883789,-0.0970458984,-0.0000217014,0.0000108507,-0.0005208333
558516.1900237510,-9.8043823245,0.0476074219,-0.0965881348,-0.0000434028,0.0000108507,0.0004231771
558516.2000237510,-9.8025512699,0.0395202637,-0.1013183594,-0.0000325521,0.0000217014,-0.0004665799
558516.2100237510,-9.8043823245,0.0474548340,-0.0985717773,-0.0000759549,-0.0000000000,0.0001953125
558516.2200237510,-9.8040771488,0.0375366211,-0.0952148438,-0.0000108507,-0.0000108507,-0.0001519097
558516.2300237510,-9.8045349124,0.0486755371,-0.0976562500,-0.0000325521,0.0000217014,-0.0001085069
558516.2400237510,-9.8040771488,0.0424194336,-0.1007080078,-0.0000217014,-0.0000108507,0.0001085069
558516.2500237511,-9.8052978519,0.0425720215,-0.0981140137,-0.0000108507,-0.0000000000,-0.0003797743
558516.2600237509,-9.8039245609,0.0437927246,-0.0959777832,-0.0000542535,-0.0000000000,0.0003580729
558516.2700237510,-9.8037719730,0.0422668457,-0.0976562500,-0.0000325521,0.0000325521,-0.0005099826
558516.2800237510,-9.8045349124,0.0460815430,-0.1002502441,-0.0000542535,-0.0000108507,0.0004123264
558516.2900237510,-9.8031616214,0.0387573242,-0.0985717773,-0.0000108507,-0.0000000000,-0.0005208333
558516.3000237510,-9.8049926761,0.0473022461,-0.0961303711,-0.0000325521,-0.0000108507,0.0003038194
558516.3100237510,-9.8033142093,0.0393676758,-0.0984191895,-0.0000217014,0.0000325521,-0.0003255208
558516.3200237510,-9.8042297366,0.0479125977,-0.0994873047,-0.0000542535,-0.0000000000,0.0000434028
558516.3300237510,-9.8043823245,0.0387573242,-0.0981140137,-0.0000434028,-0.0000000000,0.0000000000
558516.3400237510,-9.8045349124,0.0451660156,-0.0968933106,-0.0000542535,-0.0000000000,-0.0002821181
558516.3500237510,-9.8039245609,0.0428771973,-0.0973510742,-0.0000651042,0.0000108507,0.0003146701
558516.3600237510,-9.8034667972,0.0413513184,-0.0994873047,-0.0000108507,-0.0000108507,-0.0005859375
558516.3700237510,-9.8048400882,0.0468444824,-0.0993347168,-0.0000434028,-0.0000000000,0.0004340278
558516.3800237509,-9.8028564456,0.0396728516,-0.0971984863,-0.0000325521,-0.0000000000,-0.0005099826
558516.3900237510,-9.8048400882,0.0476074219,-0.0971984863,-0.0000325521,-0.0000000000,0.0003472222
558516.4000237510,-9.8031616214,0.0381469727,-0.0993347168,-0.0000325521,0.0000108507,-0.0003689236
558516.4100237510,-9.8046875003,0.0482177734,-0.0987243652,-0.0000542535,-0.0000000000,0.0001410590
558516.4200237510,-9.8040771488,0.0384521484,-0.0975036621,-0.0000325521,-0.0000108507,-0.0001193576
558516.4300237510,-9.8040771488,0.0457763672,-0.0970458984,-0.0000217014,0.0000108507,-0.0001736111
558516.4400237510,-9.8040771488,0.0415039063,-0.0984191895,-0.0000434028,-0.0000000000,0.0001844618
558516.4500237510,-9.8037719730,0.0436401367,-0.0999450684,-0.0000217014,0.0000108507,-0.0004340278
558516.4600237510,-9.8042297366,0.0431823730,-0.0970458984,-0.0000651042,-0.0000325521,0.0004231771
558516.4700237510,-9.8033142093,0.0404357910,-0.0967407227,-0.0000325521,0.0000217014,-0.0005642361
558516.4800237510,-9.8049926761,0.0482177734,-0.0994873047,-0.0000651042,-0.0000000000,0.0004340278
558516.4900237510,-9.8027038577,0.0373840332,-0.0993347168,-0.0000325521,-0.0000000000,-0.0004991319
558516.5000237511,-9.8045349124,0.0477600098,-0.0971984863,-0.0000434028,-0.0000108507,0.0002495660
558516.5100237509,-9.8031616214,0.0390625000,-0.0973510742,-0.0000325521,0.0000217014,-0.0001953125
558516.5200237510,-9.8045349124,0.0473022461,-0.0987243652,-0.0000217014,-0.0000000000,-0.0001085069
558516.5300237510,-9.8037719730,0.0399780273,-0.0991821289,-0.0000434028,-0.0000000000,0.0001844618
558516.5400237510,-9.8040771488,0.0436401367,-0.0973510742,-0.0000325521,-0.0000000000,-0.0004665799
558516.5500237510,-9.8046875003,0.0456237793,-0.0973510742,-0.0000651042,-0.0000000000,0.0004231771
558516.5600237510,-9.8033142093,0.0401306152,-0.0997924805,-0.0000108507,-0.0000000000,-0.0005750868
558516.5700237510,-9.8046875003,0.0463867188,-0.0982666016,-0.0000434028,-0.0000000000,0.0004123264
558516.5800237510,-9.8034667972,0.0378417969,-0.0971984863,-0.0000108507,-0.0000000000,-0.0004123264
558516.5900237510,-9.8042297366,0.0497436523,-0.0985717773,-0.0000651042,-0.0000000000,0.0001627604
558516.6000237510,-9.8034667972,0.0382995605,-0.0988769531,-0.0000217014,-0.0000000000,-0.0001193576
558516.6100237510,-9.8046875003,0.0453186035,-0.0984191895,-0.0000434028,-0.0000000000,-0.0001736111
558516.6200237510,-9.8034667972,0.0415039063,-0.0976562500,-0.0000434028,-0.0000000000,0.0001844618
558516.6300237509,-9.8039245609,0.0450134277,-0.0981140137,-0.0000108507,-0.0000000000,-0.0004123264
558516.6400237510,-9.8040771488,0.0444030762,-0.0988769531,-0.0000542535,-0.0000108507,0.0003472222
558516.6500237510,-9.8042297366,0.0395202637,-0.0984191895,0.0000000000,0.0000108507,-0.0005208333
558516.6600237510,-9.8049926761,0.0453186035,-0.0975036621,-0.0000542535,-0.0000108507,0.0004231771
558516.6700237510,-9.8028564456,0.0405883789,-0.0978088379,-0.0000434028,0.0000217014,-0.0005099826
558516.6800237510,-9.8043823245,0.0480651855,-0.0984191895,-0.0000651042,-0.0000000000,0.0003146701
558516.6900237510,-9.8042297366,0.0367736816,-0.0997924805,-0.0000217014,-0.0000108507,-0.0003363715
558516.7000237510,-9.8048400882,0.0477600098,-0.0975036621,-0.0000325521,-0.0000000000,0.0000434028
558516.7100237510,-9.8039245609,0.0407409668,-0.0970458984,-0.0000217014,-0.0000000000,0.0000325521
558516.7200237510,-9.8036193851,0.0456237793,-0.0985717773,-0.0000217014,-0.0000000000,-0.0003146701
558516.7300237510,-9.8036193851,0.0418090820,-0.0982666016,-0.0000651042,-0.0000000000,0.0003038194
558516.7400237510,-9.8031616214,0.0418090820,-0.0982666016,-0.0000217014,-0.0000000000,-0.0005533854
558516.7500237511,-9.8045349124,0.0474548340,-0.0978088379,-0.0000542535,-0.0000000000,0.0004557292
558516.7600237509,-9.8034667972,0.0390625000,-0.0988769531,-0.0000217014,0.0000217014,-0.0005642361
558516.7700237510,-9.8049926761,0.0466918945,-0.0985717773,-0.0000325521,-0.0000000000,0.0003255208
558516.7800237510,-9.8030090335,0.0381469727,-0.0976562500,-0.0000217014,-0.0000000000,-0.0002604167
558516.7900237510,-9.8043823245,0.0485229492,-0.0981140137,-0.0000325521,0.0000217014,-0.0000434028
558516.8000237510,-9.8043823245,0.0401306152,-0.0987243652,-0.0000434028,-0.0000108507,0.0001193576
558516.8100237510,-9.8036193851,0.0428771973,-0.0988769531,-0.0000325521,-0.0000000000,-0.0004340278
558516.8200237510,-9.8039245609,0.0444030762,-0.0971984863,-0.0000542535,-0.0000000000,0.0004123264
558516.8300237510,-9.8036193851,0.0413513184,-0.0987243652,-0.0000108507,-0.0000000000,-0.0005750868
558516.8400237510,-9.8049926761,0.0474548340,-0.0994873047,-0.0000434028,-0.0000000000,0.0004123264
558516.8500237510,-9.8027038577,0.0370788574,-0.0978088379,-0.0000108507,0.0000108507,-0.0004774306
558516.8600237510,-9.8048400882,0.0477600098,-0.0965881348,-0.0000542535,-0.0000000000,0.0002821181
558516.8700237510,-9.8036193851,0.0401306152,-0.0997924805,-0.0000217014,0.0000108507,-0.0002170139
558516.8800237509,-9.8043823245,0.0473022461,-0.1000976563,-0.0000434028,-0.0000325521,-0.0000759549
558516.8900237510,-9.8031616214,0.0393676758,-0.0964355469,-0.0000108507,-0.0000325521,0.0000976562
558516.9000237510,-9.8042297366,0.0444030762,-0.0971984863,-0.0000108507,0.0000108507,-0.0003689236
558516.9100237510,-9.8043823245,0.0450134277,-0.0999450684,-0.0000434028,-0.0000108507,0.0003580729
558516.9200237510,-9.8025512699,0.0408935547,-0.0990295410,-0.0000325521,-0.0000000000,-0.0005425347
558516.9300237510,-9.8042297366,0.0453186035,-0.0962829590,-0.0000651042,-0.0000000000,0.0004340278
558516.9400237510,-9.8033142093,0.0396728516,-0.0978088379,-0.0000325521,0.0000108507,-0.0004882812
558516.9500237510,-9.8048400882,0.0485229492,-0.0997924805,-0.0000542535,-0.0000000000,0.0002929687
558516.9600237510,-9.8030090335,0.0376892090,-0.0981140137,-0.0000108507,-0.0000000000,-0.0003689236
558516.9700237510,-9.8046875003,0.0474548340,-0.0962829590,-0.0000434028,-0.0000000000,0.0001085069
558516.9800237520,-9.8037719730,0.0398254395,-0.0981140137,-0.0000108507,-0.0000000000,-0.0000651042
558516.9900237520,-9.8039245609,0.0465393066,-0.0997924805,-0.0000325521,-0.0000000000,-0.0001736111
558517.0000237520,-9.8039245609,0.0411987305,-0.0982666016,-0.0000542535,-0.0000108507,0.0002170139
558517.0100237520,-9.8039245609,0.0421142578,-0.0961303711,-0.0000217014,0.0000108507,-0.0004882812
558517.0200237520,-9.8049926761,0.0462341309,-0.0978088379,-0.0000542535,-0.0000000000,0.0004448785
558517.0300237520,-9.8036193851,0.0405883789,-0.1010131836,-0.0000217014,-0.0000000000,-0.0005967882
558517.0400237520,-9.8045349124,0.0463867188,-0.0976562500,-0.0000434028,-0.0000325521,0.0003797743
558517.0500237520,-9.8034667972,0.0378417969,-0.0952148438,-0.0000108507,0.0000217014,-0.0004231771
558517.0600237520,-9.8040771488,0.0494384766,-0.0994873047,-0.0000651042,-0.0000000000,0.0002061632
558517.0700237521,-9.8039245609,0.0381469727,-0.1000976563,-0.0000217014,-0.0000000000,-0.0002170139
558517.0800237519,-9.8039245609,0.0468444824,-0.0978088379,-0.0000542535,-0.0000325521,-0.0000759549
558517.0900237520,-9.8034667972,0.0387573242,-0.0961303711,-0.0000325521,-0.0000000000,0.0001302083
558517.1000237520,-9.8048400882,0.0454711914,-0.0988769531,-0.0000217014,0.0000217014,-0.0004014757
558517.1100237520,-9.8046875003,0.0456237793,-0.1005554199,-0.0000434028,-0.0000108507,0.0003797743
558517.1200237520,-9.8031616214,0.0398254395,-0.0975036621,-0.0000217014,-0.0000000000,-0.0006184896
558517.1300237520,-9.8043823245,0.0466918945,-0.0955200195,-0.0000651042,0.0000108507,0.0005099826
558517.1400237520,-9.8037719730,0.0399780273,-0.1000976563,-0.0000325521,0.0000108507,-0.0004774306
558517.1500237520,-9.8048400882,0.0489807129,-0.1000976563,-0.0000325521,-0.0000325521,0.0001302083
558517.1600237520,-9.8039245609,0.0375366211,-0.0965881348,-0.0000325521,-0.0000108507,-0.0000868056
558517.1700237520,-9.8042297366,0.0457763672,-0.0956726074,-0.0000217014,0.0000108507,-0.0001519097
558517.1800237520,-9.8040771488,0.0430297852,-0.0993347168,-0.0000217014,-0.0000000000,0.0002061632
558517.1900237520,-9.8039245609,0.0442504883,-0.1007080078,-0.0000542535,-0.0000000000,-0.0004774306
558517.2000237521,-9.8039245609,0.0428771973,-0.0964355469,-0.0000542535,-0.0000108507,0.0004123264
558517.2100237519,-9.8037719730,0.0398254395,-0.0968933106,-0.0000325521,0.0000217014,-0.0005642361
558517.2200237520,-9.8054504398,0.0494384766,-0.1013183594,-0.0000542535,-0.0000000000,0.0004340278
558517.2300237520,-9.8028564456,0.0373840332,-0.0987243652,-0.0000108507,-0.0000000000,-0.0005099826
558517.2400237520,-9.8042297366,0.0466918945,-0.0953674316,-0.0000217014,-0.0000108507,0.0002495660
558517.2500237520,-9.8030090335,0.0398254395,-0.0991821289,-0.0000325521,0.0000217014,-0.0001193576
558517.2600237520,-9.8043823245,0.0479125977,-0.1000976563,-0.0000542535,-0.0000000000,-0.0002170139
558517.2700237520,-9.8043823245,0.0404357910,-0.0978088379,-0.0000542535,-0.0000000000,0.0002495660
558517.2800237520,-9.8037719730,0.0415039063,-0.0973510742,-0.0000325521,-0.0000000000,-0.0005099826
558517.2900237520,-9.8042297366,0.0456237793,-0.0984191895,-0.0000217014,-0.0000000000,0.0004448785
558517.3000237520,-9.8034667972,0.0419616699,-0.1002502441,-0.0000108507,-0.0000000000,-0.0005642361
558517.3100237520,-9.8046875003,0.0466918945,-0.0971984863,-0.0000325521,0.0000108507,0.0003689236
558517.3200237521,-9.8028564456,0.0367736816,-0.0971984863,-0.0000434028,0.0000108507,-0.0004014757
558517.3300237519,-9.8043823245,0.0489807129,-0.0987243652,-0.0000651042,-0.0000000000,0.0001844618
558517.3400237520,-9.8033142093,0.0395202637,-0.0985717773,-0.0000325521,-0.0000108507,-0.0002061632
558517.3500237520,-9.8043823245,0.0462341309,-0.0976562500,-0.0000434028,-0.0000000000,-0.0000868056
558517.3600237520,-9.8040771488,0.0398254395,-0.0984191895,-0.0000325521,-0.0000000000,0.0001085069
558517.3700237520,-9.8039245609,0.0444030762,-0.0978088379,0.0000108507,-0.0000000000,-0.0003797743
558517.3800237520,-9.8036193851,0.0457763672,-0.0982666016,-0.0000542535,-0.0000000000,0.0004123264
558517.3900237520,-9.8033142093,0.0393676758,-0.0994873047,-0.0000325521,0.0000108507,-0.0006293403
558517.4000237520,-9.8052978519,0.0459289551,-0.0982666016,-0.0000651042,-0.0000000000,0.0004557292
558517.4100237520,-9.8030090335,0.0392150879,-0.0976562500,-0.0000325521,-0.0000000000,-0.0004340278
558517.4200237520,-9.8048400882,0.0485229492,-0.0978088379,-0.0000434028,-0.0000000000,0.0001627604
558517.4300237520,-9.8033142093,0.0379943848,-0.0982666016,-0.0000217014,-0.0000000000,-0.0001519097
558517.4400237520,-9.8046875003,0.0456237793,-0.0982666016,-0.0000217014,-0.0000000000,-0.0000759549
558517.4500237521,-9.8037719730,0.0416564941,-0.0976562500,-0.0000434028,0.0000325521,0.0000976562
558517.4600237519,-9.8048400882,0.0451660156,-0.0985717773,-0.0000434028,-0.0000108507,-0.0003146701
558517.4700237520,-9.8042297366,0.0434875488,-0.0985717773,-0.0000976562,-0.0000108507,0.0002929687
558517.4800237520,-9.8037719730,0.0399780273,-0.0976562500,-0.0000108507,-0.0000000000,-0.0005208333
558517.4900237520,-9.8049926761,0.0460815430,-0.0978088379,-0.0000325521,-0.0000000000,0.0004665799
558517.5000237520,-9.8028564456,0.0408935547,-0.0993347168,-0.0000217014,-0.0000000000,-0.0005533854
558517.5100237520,-9.8057556156,0.0476074219,-0.0985717773,-0.0000217014,-0.0000000000,0.0003255208
558517.5200237520,-9.8028564456,0.0363159180,-0.0984191895,-0.0000434028,-0.0000000000,-0.0002929687
558517.5300237520,-9.8051452640,0.0479125977,-0.0978088379,-0.0000542535,-0.0000000000,0.0000000000
558517.5400237520,-9.8036193851,0.0401306152,-0.0970458984,-0.0000325521,-0.0000000000,0.0000976562
558517.5500237520,-9.8039245609,0.0453186035,-0.0993347168,-0.0000325521,-0.0000000000,-0.0004014757
558517.5600237520,-9.8043823245,0.0431823730,-0.0991821289,-0.0000434028,-0.0000000000,0.0003906250
558517.5700237521,-9.8033142093,0.0396728516,-0.0976562500,-0.0000108507,-0.0000000000,-0.0005859375
558517.5800237519,-9.8051452640,0.0477600098,-0.0975036621,-0.0000217014,-0.0000000000,0.0004991319
558517.5900237520,-9.8034667972,0.0382995605,-0.0985717773,-0.0000325521,0.0000217014,-0.0005099826
558517.6000237520,-9.8045349124,0.0485229492,-0.0987243652,-0.0000542535,-0.0000000000,0.0002061632
558517.6100237520,-9.8033142093,0.0382995605,-0.0979614258,-0.0000217014,-0.0000000000,-0.0001085069
558517.6200237520,-9.8042297366,0.0466918945,-0.0971984863,-0.0000325521,-0.0000000000,-0.0002278646
558517.6300237520,-9.8037719730,0.0415039063,-0.0984191895,0.0000000000,-0.0000000000,0.0002712674
558517.6400237520,-9.8037719730,0.0421142578,-0.0988769531,-0.0000217014,-0.0000108507,-0.0005533854
558517.6500237520,-9.8046875003,0.0462341309,-0.0975036621,-0.0000434028,-0.0000000000,0.0004665799
558517.6600237520,-9.8031616214,0.0392150879,-0.0988769531,-0.0000434028,0.0000108507,-0.0005533854
558517.6700237520,-9.8048400882,0.0480651855,-0.0984191895,-0.0000651042,-0.0000000000,0.0003363715
558517.6800237520,-9.8027038577,0.0373840332,-0.0981140137,-0.0000325521,-0.0000000000,-0.0003363715
558517.6900237520,-9.8045349124,0.0480651855,-0.0982666016,-0.0000325521,-0.0000000000,0.0000759549
558517.7000237521,-9.8033142093,0.0399780273,-0.0981140137,-0.0000217014,-0.0000000000,-0.0000217014
558517.7100237519,-9.8039245609,0.0448608398,-0.0979614258,-0.0000108507,-0.0000000000,-0.0002929687
558517.7200237520,-9.8042297366,0.0425720215,-0.0985717773,-0.0000434028,-0.0000000000,0.0003038194
558517.7300237520,-9.8039245609,0.0424194336,-0.0987243652,-0.0000325521,0.0000108507,-0.0005099826
558517.7400237520,-9.8043823245,0.0450134277,-0.0971984863,-0.0000651042,-0.0000000000,0.0004340278
558517.7500237520,-9.8028564456,0.0389099121,-0.0988769531,-0.0000434028,0.0000108507,-0.0005642361
558517.7600237520,-9.8043823245,0.0473022461,-0.0990295410,-0.0000325521,-0.0000000000,0.0003580729
558517.7700237520,-9.8031616214,0.0376892090,-0.0971984863,-0.0000108507,-0.0000000000,-0.0003472222
558517.7800237520,-9.8060607913,0.0479125977,-0.0962829590,-0.0000325521,-0.0000000000,0.0000868056
558517.7900237520,-9.8042297366,0.0386047363,-0.0994873047,-0.0000434028,0.0000108507,0.0000000000
558517.8000237520,-9.8039245609,0.0450134277,-0.0993347168,-0.0000325521,-0.0000000000,-0.0002929687
558517.8100237520,-9.8036193851,0.0430297852,-0.0971984863,-0.0000651042,-0.0000000000,0.0002821181
558517.8200237521,-9.8033142093,0.0416564941,-0.0976562500,-0.0000217014,0.0000108507,-0.0005425347
558517.8300237519,-9.8043823245,0.0450134277,-0.0990295410,-0.0000434028,-0.0000000000,0.0004340278
558517.8400237520,-9.8045349124,0.0396728516,-0.1000976563,-0.0000325521,-0.0000108507,-0.0005316840
558517.8500237520,-9.8048400882,0.0479125977,-0.0978088379,-0.0000217014,-0.0000000000,0.0003363715
558517.8600237520,-9.8028564456,0.0384521484,-0.0962829590,-0.0000434028,-0.0000000000,-0.0003472222
558517.8700237520,-9.8043823245,0.0473022461,-0.0981140137,-0.0000651042,0.0000108507,0.0000868056
558517.8800237520,-9.8039245609,0.0398254395,-0.1008605957,-0.0000542535,-0.0000000000,0.0000000000
558517.8900237520,-9.8043823245,0.0453186035,-0.0985717773,-0.0000217014,-0.0000108507,-0.0003689236
558517.9000237520,-9.8043823245,0.0422668457,-0.0955200195,-0.0000325521,-0.0000000000,0.0003906250
558517.9100237520,-9.8034667972,0.0407409668,-0.0990295410,-0.0000108507,0.0000325521,-0.0005750868
558517.9200237520,-9.8051452640,0.0479125977,-0.1008605957,-0.0000325521,-0.0000325521,0.0004774306
558517.9300237520,-9.8028564456,0.0379943848,-0.0979614258,-0.0000217014,-0.0000000000,-0.0005533854
558517.9400237520,-9.8046875003,0.0476074219,-0.0952148438,-0.0000759549,0.0000108507,0.0002929687
558517.9500237521,-9.8037719730,0.0387573242,-0.0987243652,-0.0000434028,0.0000108507,-0.0001953125
558517.9600237519,-9.8045349124,0.0480651855,-0.1004028320,-0.0000217014,-0.0000000000,-0.0000759549
558517.9700237520,-9.8034667972,0.0396728516,-0.0979614258,-0.0000217014,-0.0000108507,0.0000542535
558517.9800237520,-9.8040771488,0.0440979004,-0.0959777832,-0.0000108507,0.0000108507,-0.0003255208
558517.9900237520,-9.8040771488,0.0436401367,-0.0981140137,-0.0000542535,0.0000325521,0.0003472222
558518.0000237520,-9.8033142093,0.0422668457,-0.1007080078,-0.0000325521,-0.0000325521,-0.0005316840
558518.0100237520,-9.8048400882,0.0456237793,-0.0984191895,-0.0000651042,0.0000108507,0.0004340278
558518.0200237520,-9.8034667972,0.0384521484,-0.0967407227,-0.0000217014,-0.0000000000,-0.0005642361
558518.0300237520,-9.8052978519,0.0471496582,-0.0984191895,-0.0000325521,-0.0000000000,0.0003906250
558518.0400237520,-9.8030090335,0.0386047363,-0.1000976563,-0.0000217014,-0.0000000000,-0.0003797743
558518.0500237520,-9.8051452640,0.0482177734,-0.0982666016,-0.0000434028,-0.0000108507,0.0000434028
558518.0600237530,-9.8031616214,0.0382995605,-0.0964355469,-0.0000542535,0.0000108507,0.0000434028
558518.0700237530,-9.8042297366,0.0456237793,-0.0979614258,-0.0000325521,0.0000325521,-0.0003689236
558518.0800237530,-9.8039245609,0.0440979004,-0.1008605957,-0.0000542535,-0.0000434028,0.0003689236
558518.0900237530,-9.8031616214,0.0396728516,-0.0985717773,-0.0000325521,0.0000108507,-0.0005967882
558518.1000237530,-9.8056030277,0.0468444824,-0.0956726074,-0.0000217014,-0.0000000000,0.0004774306
558518.1100237530,-9.8033142093,0.0398254395,-0.0994873047,0.0000000000,0.0000108507,-0.0005099826
558518.1200237530,-9.8046875003,0.0482177734,-0.0994873047,-0.0000542535,-0.0000000000,0.0002604167
558518.1300237530,-9.8031616214,0.0376892090,-0.0984191895,-0.0000434028,-0.0000000000,-0.0002170139
558518.1400237530,-9.8039245609,0.0471496582,-0.0959777832,-0.0000542535,-0.0000000000,-0.0001410590
558518.1500237531,-9.8033142093,0.0411987305,-0.0991821289,-0.0000651042,0.0000217014,0.0002170139
558518.1600237529,-9.8036193851,0.0434875488,-0.1007080078,0.0000000000,-0.0000325521,-0.0005099826
558518.1700237530,-9.8045349124,0.0451660156,-0.0978088379,-0.0000325521,-0.0000108507,0.0004448785
558518.1800237530,-9.8033142093,0.0393676758,-0.0965881348,-0.0000108507,0.0000108507,-0.0005642361
558518.1900237530,-9.8046875003,0.0482177734,-0.0976562500,-0.0000542535,-0.0000000000,0.0003797743
558518.2000237530,-9.8030090335,0.0382995605,-0.0996398926,-0.0000325521,-0.0000000000,-0.0004123264
558518.2100237530,-9.8048400882,0.0476074219,-0.0985717773,-0.0000651042,-0.0000000000,0.0001410590
558518.2200237530,-9.8039245609,0.0393676758,-0.0967407227,-0.0000325521,-0.0000000000,-0.0001410590
558518.2300237530,-9.8037719730,0.0465393066,-0.0976562500,-0.0000108507,0.0000217014,-0.0000868056
558518.2400237530,-9.8031616214,0.0408935547,-0.0993347168,-0.0000542535,-0.0000325521,0.0000542535
558518.2500237530,-9.8045349124,0.0444030762,-0.0990295410,-0.0000108507,-0.0000000000,-0.0002929687
558518.2600237530,-9.8039245609,0.0436401367,-0.0973510742,-0.0000434028,-0.0000000000,0.0002929687
558518.2700237531,-9.8043823245,0.0421142578,-0.0975036621,-0.0000325521,0.0000217014,-0.0005533854
558518.2800237529,-9.8046875003,0.0456237793,-0.0996398926,-0.0000651042,-0.0000000000,0.0004665799
558518.2900237530,-9.8036193851,0.0384521484,-0.0991821289,-0.0000217014,-0.0000000000,-0.0005533854
558518.3000237530,-9.8043823245,0.0483703613,-0.0970458984,-0.0000217014,-0.0000325521,0.0003580729
558518.3100237530,-9.8036193851,0.0381469727,-0.0978088379,-0.0000217014,0.0000217014,-0.0003255208
558518.3200237530,-9.8049926761,0.0476074219,-0.0984191895,-0.0000434028,-0.0000000000,0.0000217014
558518.3300237530,-9.8037719730,0.0387573242,-0.0984191895,-0.0000434028,-0.0000108507,0.0000325521
558518.3400237530,-9.8042297366,0.0454711914,-0.0987243652,-0.0000434028,-0.0000000000,-0.0003038194
558518.3500237530,-9.8039245609,0.0434875488,-0.0978088379,-0.0000651042,-0.0000000000,0.0003038194
558518.3600237530,-9.8042297366,0.0410461426,-0.0997924805,-0.0000108507,-0.0000000000,-0.0005208333
558518.3700237530,-9.8052978519,0.0453186035,-0.0990295410,-0.0000325521,-0.0000000000,0.0004340278
558518.3800237530,-9.8030090335,0.0395202637,-0.0978088379,-0.0000108507,-0.0000000000,-0.0005425347
558518.3900237530,-9.8045349124,0.0485229492,-0.0970458984,-0.0000651042,0.0000108507,0.0003689236
558518.4000237531,-9.8031616214,0.0382995605,-0.0987243652,-0.0000325521,0.0000108507,-0.0003906250
558518.4100237529,-9.8043823245,0.0468444824,-0.0996398926,-0.0000651042,-0.0000000000,0.0000976562
558518.4200237530,-9.8033142093,0.0399780273,-0.0976562500,-0.0000325521,-0.0000000000,-0.0000542535
558518.4300237530,-9.8040771488,0.0469970703,-0.0973510742,-0.0000325521,-0.0000000000,-0.0002061632
558518.4400237530,-9.8033142093,0.0410461426,-0.0988769531,-0.0000434028,-0.0000000000,0.0002170139
558518.4500237530,-9.8042297366,0.0422668457,-0.0987243652,-0.0000108507,0.0000108507,-0.0004340278
558518.4600237530,-9.8043823245,0.0454711914,-0.0978088379,-0.0000651042,-0.0000108507,0.0003906250
558518.4700237530,-9.8039245609,0.0407409668,-0.0970458984,-0.0000434028,-0.0000000000,-0.0005642361
558518.4800237530,-9.8054504398,0.0462341309,-0.0984191895,-0.0000651042,-0.0000000000,0.0003906250
558518.4900237530,-9.8030090335,0.0387573242,-0.1002502441,0.0000108507,-0.0000108507,-0.0004774306
558518.5000237530,-9.8046875003,0.0485229492,-0.0968933106,-0.0000325521,-0.0000108507,0.0002278646
558518.5100237530,-9.8031616214,0.0378417969,-0.0965881348,-0.0000108507,0.0000325521,-0.0001627604
558518.5200237531,-9.8046875003,0.0469970703,-0.0991821289,-0.0000434028,0.0000108507,-0.0000651042
558518.5300237529,-9.8039245609,0.0410461426,-0.0994873047,-0.0000542535,-0.0000325521,0.0000868056
558518.5400237530,-9.8040771488,0.0442504883,-0.0971984863,-0.0000434028,-0.0000000000,-0.0003906250
558518.5500237530,-9.8042297366,0.0434875488,-0.0965881348,-0.0000651042,-0.0000000000,0.0003363715
558518.5600237530,-9.8031616214,0.0411987305,-0.0993347168,0.0000108507,-0.0000000000,-0.0005208333
558518.5700237530,-9.8046875003,0.0460815430,-0.0994873047,-0.0000217014,-0.0000000000,0.0004340278
558518.5800237530,-9.8031616214,0.0395202637,-0.0975036621,-0.0000217014,-0.0000000000,-0.0005425347
558518.5900237530,-9.8046875003,0.0471496582,-0.0967407227,-0.0000542535,-0.0000000000,0.0003472222
558518.6000237530,-9.8034667972,0.0384521484,-0.0990295410,-0.0000325521,0.0000108507,-0.0003689236
558518.6100237530,-9.8045349124,0.0482177734,-0.0990295410,-0.0000759549,-0.0000000000,0.0001302083
558518.6200237530,-9.8040771488,0.0379943848,-0.0968933106,-0.0000217014,-0.0000000000,-0.0001627604
558518.6300237530,-9.8043823245,0.0460815430,-0.0981140137,-0.0000108507,0.0000108507,-0.0000868056
558518.6400237530,-9.8037719730,0.0411987305,-0.0985717773,-0.0000325521,-0.0000108507,0.0001085069
558518.6500237531,-9.8046875003,0.0439453125,-0.0984191895,-0.0000217014,-0.0000000000,-0.0003472222
558518.6600237529,-9.8045349124,0.0437927246,-0.0985717773,-0.0000651042,0.0000108507,0.0003038194
558518.6700237530,-9.8034667972,0.0411987305,-0.0976562500,-0.0000217014,-0.0000325521,-0.0005425347
558518.6800237530,-9.8045349124,0.0454711914,-0.0964355469,-0.0000434028,-0.0000000000,0.0003906250
558518.6900237530,-9.8033142093,0.0408935547,-0.1004028320,-0.0000217014,0.0000108507,-0.0005099826
558518.7000237530,-9.8048400882,0.0465393066,-0.0991821289,-0.0000325521,-0.0000325521,0.0003363715
558518.7100237530,-9.8028564456,0.0372314453,-0.0958251953,-0.0000108507,0.0000217014,-0.0003906250
558518.7200237530,-9.8042297366,0.0488281250,-0.0961303711,-0.0000542535,-0.0000000000,0.0001193576
558518.7300237530,-9.8031616214,0.0390625000,-0.0994873047,-0.0000542535,-0.0000108507,-0.0000542535
558518.7400237530,-9.8042297366,0.0457763672,-0.1000976563,-0.0000325521,0.0000108507,-0.0002495660
558518.7500237530,-9.8046875003,0.0411987305,-0.0962829590,-0.0000434028,-0.0000000000,0.0002821181
558518.7600237530,-9.8033142093,0.0428771973,-0.0971984863,-0.0000108507,0.0000108507,-0.0005208333
558518.7700237531,-9.8045349124,0.0471496582,-0.0997924805,-0.0000434028,-0.0000217014,0.0004774306
558518.7800237529,-9.8033142093,0.0386047363,-0.0993347168,-0.0000108507,-0.0000000000,-0.0005967882
558518.7900237530,-9.8043823245,0.0482177734,-0.0962829590,-0.0000434028,-0.0000000000,0.0003580729
558518.8000237530,-9.8030090335,0.0378417969,-0.0964355469,-0.0000434028,0.0000108507,-0.0002604167
558518.8100237530,-9.8049926761,0.0479125977,-0.0999450684,-0.0000434028,-0.0000000000,-0.0000868056
558518.8200237530,-9.8042297366,0.0393676758,-0.0990295410,-0.0000542535,-0.0000000000,0.0001953125
558518.8300237530,-9.8043823245,0.0428771973,-0.0965881348,-0.0000217014,-0.0000000000,-0.0004774306
558518.8400237530,-9.8045349124,0.0463867188,-0.0985717773,-0.0000325521,-0.0000000000,0.0004448785
558518.8500237530,-9.8027038577,0.0390625000,-0.0991821289,-0.0000217014,-0.0000000000,-0.0005859375
558518.8600237530,-9.8056030277,0.0463867188,-0.0976562500,-0.0000542535,-0.0000325521,0.0003797743
558518.8700237530,-9.8027038577,0.0386047363,-0.0975036621,-0.0000325521,0.0000325521,-0.0003797743
558518.8800237530,-9.8046875003,0.0494384766,-0.0981140137,-0.0000542535,0.0000108507,0.0001193576
558518.8900237530,-9.8033142093,0.0386047363,-0.0993347168,-0.0000217014,-0.0000108507,-0.0001193576
558518.9000237531,-9.8051452640,0.0454711914,-0.0979614258,-0.0000108507,-0.0000434028,-0.0001519097
558518.9100237529,-9.8037719730,0.0413513184,-0.0979614258,-0.0000434028,0.0000217014,0.0001953125
558518.9200237530,-9.8036193851,0.0445556641,-0.0979614258,-0.0000434028,0.0000976562,-0.0004340278
558518.9300237530,-9.8033142093,0.0439453125,-0.0985717773,-0.0000651042,-0.0000000000,0.0003689236
558518.9400237530,-9.8036193851,0.0399780273,-0.0985717773,-0.0000217014,-0.0000542535,-0.0005425347
558518.9500237530,-9.8049926761,0.0469970703,-0.0979614258,-0.0000542535,-0.0000651042,0.0004231771
558518.9600237530,-9.8030090335,0.0405883789,-0.0982666016,-0.0000108507,0.0000868056,-0.0004882812
558518.9700237530,-9.8045349124,0.0479125977,-0.0985717773,-0.0000325521,0.0000325521,0.0002712674
558518.9800237530,-9.8031616214,0.0360107422,-0.0982666016,-0.0000217014,-0.0000000000,-0.0002278646
558518.9900237530,-9.8046875003,0.0488281250,-0.0985717773,-0.0000434028,-0.0000542535,-0.0000325521
558519.0000237530,-9.8037719730,0.0411987305,-0.0984191895,-0.0000325521,-0.0000542535,0.0000868056
558519.0100237530,-9.8033142093,0.0439453125,-0.0976562500,-0.0000542535,0.0000759549,-0.0004340278
558519.0200237531,-9.8043823245,0.0434875488,-0.0978088379,-0.0000434028,0.0000325521,0.0004231771
558519.0300237529,-9.8031616214,0.0407409668,-0.0990295410,-0.0000108507,-0.0000542535,-0.0005859375
558519.0400237530,-9.8052978519,0.0476074219,-0.0962829590,-0.0000325521,-0.0000868056,0.0004448785
558519.0500237530,-9.8039245609,0.0375366211,-0.0991821289,-0.0000108507,0.0000325521,-0.0004774306
558519.0600237530,-9.8034667972,0.0479125977,-0.0985717773,-0.0000542535,0.0000759549,0.0001736111
558519.0700237530,-9.8028564456,0.0387573242,-0.0978088379,-0.0000542535,0.0000217014,-0.0000759549
558519.0800237530,-9.8046875003,0.0471496582,-0.0985717773,-0.0000434028,-0.0000868056,-0.0002495660
558519.0900237530,-9.8049926761,0.0419616699,-0.0973510742,-0.0000325521,-0.0000434028,0.0002821181
558519.1000237530,-9.8033142093,0.0418090820,-0.1004028320,-0.0000108507,0.0001193576,-0.0005208333
558519.1100237530,-9.8045349124,0.0456237793,-0.0961303711,-0.0000325521,-0.0000000000,0.0004665799
558519.1200237530,-9.8037719730,0.0396728516,-0.0973510742,0.0000000000,-0.0000976562,-0.0005750868
558519.1300237540,-9.8045349124,0.0477600098,-0.0999450684,-0.0000542535,-0.0000000000,0.0003580729
558519.1400237540,-9.8028564456,0.0381469727,-0.0996398926,-0.0000434028,0.0000651042,-0.0003472222
558519.1500237540,-9.8042297366,0.0486755371,-0.0961303711,-0.0000542535,0.0000217014,0.0000542535
558519.1600237540,-9.8036193851,0.0401306152,-0.0965881348,-0.0000108507,-0.0000108507,-0.0000217014
558519.1700237540,-9.8051452640,0.0456237793,-0.1011657715,-0.0000108507,-0.0000651042,-0.0002278646
558519.1800237540,-9.8040771488,0.0421142578,-0.0994873047,-0.0000325521,-0.0000108507,0.0002495660
558519.1900237540,-9.8036193851,0.0431823730,-0.0955200195,-0.0000325521,0.0000976562,-0.0004665799
558519.2000237540,-9.8046875003,0.0454711914,-0.0970458984,-0.0000542535,0.0000325521,0.0003580729
558519.2100237540,-9.8034667972,0.0405883789,-0.1002502441,-0.0000434028,-0.0000108507,-0.0005425347
558519.2200237541,-9.8051452640,0.0462341309,-0.0996398926,-0.0000217014,-0.0001302083,0.0004340278
558519.2300237539,-9.8033142093,0.0382995605,-0.0964355469,-0.0000108507,0.0000434028,-0.0004774306
558519.2400237540,-9.8048400882,0.0489807129,-0.0971984863,-0.0000325521,0.0000759549,0.0002604167
558519.2500237540,-9.8037719730,0.0386047363,-0.0996398926,-0.0000108507,0.0000108507,-0.0001736111
558519.2600237540,-9.8042297366,0.0471496582,-0.0996398926,-0.0000651042,-0.0000542535,-0.0001410590
558519.2700237540,-9.8042297366,0.0404357910,-0.0968933106,-0.0000325521,-0.0000759549,0.0001844618
558519.2800237540,-9.8040771488,0.0440979004,-0.0976562500,-0.0000325521,0.0000217014,-0.0004123264
558519.2900237540,-9.8040771488,0.0450134277,-0.0991821289,-0.0000434028,0.0000217014,0.0003797743
558519.3000237540,-9.8033142093,0.0390625000,-0.0997924805,-0.0000108507,-0.0000000000,-0.0005642361
558519.3100237540,-9.8045349124,0.0477600098,-0.0965881348,-0.0000434028,0.0000108507,0.0004557292
558519.3200237540,-9.8028564456,0.0393676758,-0.0965881348,-0.0000217014,0.0000325521,-0.0004774306
558519.3300237540,-9.8046875003,0.0494384766,-0.0994873047,-0.0000542535,-0.0000000000,0.0001844618
558519.3400237540,-9.8036193851,0.0376892090,-0.1005554199,-0.0000434028,-0.0000325521,-0.0001736111
558519.3500237541,-9.8048400882,0.0465393066,-0.0973510742,-0.0000434028,-0.0000434028,-0.0001085069
558519.3600237540,-9.8043823245,0.0418090820,-0.0956726074,0.0000000000,-0.0000000000,0.0001736111
558519.3700237540,-9.8042297366,0.0437927246,-0.0996398926,-0.0000108507,0.0000108507,-0.0004340278
558519.3800237540,-9.8043823245,0.0440979004,-0.0990295410,-0.0000434028,0.0000217014,0.0004123264
558519.3900237540,-9.8030090335,0.0401306152,-0.0973510742,-0.0000325521,0.0000759549,-0.0005642361
558519.4000237540,-9.8048400882,0.0473022461,-0.0970458984,-0.0000759549,-0.0000759549,0.0004448785
558519.4100237540,-9.8040771488,0.0386047363,-0.0997924805,-0.0000217014,-0.0000434028,-0.0005099826
558519.4200237540,-9.8045349124,0.0477600098,-0.0996398926,-0.0000325521,0.0000108507,0.0002712674
558519.4300237540,-9.8030090335,0.0384521484,-0.0964355469,-0.0000217014,0.0000868056,-0.0001953125
558519.4400237540,-9.8046875003,0.0477600098,-0.0970458984,-0.0000325521,-0.0000000000,-0.0000868056
558519.4500237540,-9.8033142093,0.0405883789,-0.0985717773,-0.0000325521,-0.0000325521,0.0001627604
558519.4600237540,-9.8043823245,0.0424194336,-0.0997924805,-0.0000434028,-0.0000759549,-0.0004557292
558519.4700237541,-9.8040771488,0.0450134277,-0.0979614258,-0.0000434028,-0.0000000000,0.0004231771
558519.4800237539,-9.8036193851,0.0410461426,-0.0971984863,-0.0000325521,0.0000651042,-0.0005859375
558519.4900237540,-9.8048400882,0.0468444824,-0.0987243652,-0.0000434028,0.0000217014,0.0004340278
558519.5000237540,-9.8030090335,0.0379943848,-0.0993347168,0.0000000000,-0.0000325521,-0.0004882812
558519.5100237540,-9.8051452640,0.0482177734,-0.0976562500,-0.0000217014,-0.0000434028,0.0002061632
558519.5200237540,-9.8034667972,0.0390625000,-0.0978088379,-0.0000651042,-0.0000000000,-0.0001302083
558519.5300237540,-9.8046875003,0.0460815430,-0.0990295410,-0.0000434028,-0.0000325521,-0.0001736111
558519.5400237540,-9.8037719730,0.0411987305,-0.0987243652,-0.0000651042,0.0000108507,0.0001953125
558519.5500237540,-9.8034667972,0.0428771973,-0.0976562500,-0.0000217014,0.0000759549,-0.0004340278
558519.5600237540,-9.8040771488,0.0445556641,-0.0979614258,-0.0000325521,0.0000108507,0.0004123264
558519.5700237540,-9.8033142093,0.0404357910,-0.0984191895,-0.0000108507,-0.0000108507,-0.0005642361
558519.5800237540,-9.8049926761,0.0457763672,-0.0979614258,-0.0000217014,-0.0000868056,0.0004123264
558519.5900237540,-9.8028564456,0.0389099121,-0.0976562500,-0.0000434028,0.0000217014,-0.0004882812
558519.6000237541,-9.8051452640,0.0480651855,-0.0975036621,-0.0000542535,0.0000976562,0.0002604167
558519.6100237540,-9.8040771488,0.0379943848,-0.0990295410,-0.0000325521,-0.0000000000,-0.0002604167
558519.6200237540,-9.8046875003,0.0474548340,-0.0985717773,-0.0000434028,-0.0000868056,0.0000000000
558519.6300237540,-9.8045349124,0.0392150879,-0.0971984863,-0.0000325521,-0.0000434028,0.0000976562
558519.6400237540,-9.8042297366,0.0454711914,-0.0985717773,-0.0000217014,0.0000217014,-0.0004123264
558519.6500237540,-9.8037719730,0.0431823730,-0.0979614258,-0.0000542535,0.0001085069,0.0003906250
558519.6600237540,-9.8033142093,0.0399780273,-0.0987243652,-0.0000217014,-0.0000542535,-0.0006184896
558519.6700237540,-9.8052978519,0.0473022461,-0.0984191895,-0.0000542535,-0.0000868056,0.0004557292
558519.6800237540,-9.8030090335,0.0382995605,-0.0979614258,-0.0000434028,0.0000651042,-0.0004882812
558519.6900237540,-9.8045349124,0.0480651855,-0.0990295410,-0.0000325521,0.0000542535,0.0002170139
558519.7000237540,-9.8034667972,0.0376892090,-0.0973510742,-0.0000108507,-0.0000108507,-0.0001953125
558519.7100237540,-9.8043823245,0.0468444824,-0.0975036621,-0.0000325521,-0.0000108507,-0.0000868056
558519.7200237541,-9.8037719730,0.0411987305,-0.0993347168,-0.0000434028,-0.0000325521,0.0001193576
558519.7300237539,-9.8043823245,0.0431823730,-0.0996398926,-0.0000434028,-0.0000000000,-0.0004231771
558519.7400237540,-9.8037719730,0.0439453125,-0.0970458984,-0.0000759549,0.0000217014,0.0004123264
558519.7500237540,-9.8030090335,0.0408935547,-0.0970458984,-0.0000325521,0.0001085069,-0.0005533854
558519.7600237540,-9.8037719730,0.0473022461,-0.0990295410,-0.0000434028,-0.0000759549,0.0004340278
558519.7700237540,-9.8040771488,0.0379943848,-0.0994873047,-0.0000108507,-0.0000868056,-0.0004991319
558519.7800237540,-9.8052978519,0.0474548340,-0.0976562500,-0.0000217014,-0.0000000000,0.0002495660
558519.7900237540,-9.8034667972,0.0386047363,-0.0968933106,-0.0000434028,0.0001085069,-0.0002170139
558519.8000237540,-9.8046875003,0.0479125977,-0.0990295410,-0.0000651042,-0.0000000000,-0.0001085069
558519.8100237540,-9.8040771488,0.0392150879,-0.0990295410,-0.0000434028,-0.0000651042,0.0001627604
558519.8200237540,-9.8045349124,0.0430297852,-0.0981140137,-0.0000325521,-0.0000542535,-0.0004231771
558519.8300237540,-9.8049926761,0.0454711914,-0.0971984863,-0.0000542535,0.0000217014,0.0004448785
558519.8400237540,-9.8030090335,0.0399780273,-0.0984191895,0.0000000000,0.0000868056,-0.0006293403
558519.8500237541,-9.8049926761,0.0482177734,-0.0988769531,-0.0000651042,-0.0000434028,0.0004665799
558519.8600237540,-9.8036193851,0.0370788574,-0.0982666016,-0.0000434028,-0.0000759549,-0.0004340278
558519.8700237540,-9.8057556156,0.0488281250,-0.0968933106,-0.0000542535,-0.0000325521,0.0001193576
558519.8800237540,-9.8025512699,0.0389099121,-0.0976562500,-0.0000542535,0.0001085069,-0.0000759549
558519.8900237540,-9.8048400882,0.0454711914,-0.0996398926,-0.0000217014,-0.0000000000,-0.0002387153
558519.9000237540,-9.8040771488,0.0415039063,-0.0984191895,-0.0000325521,-0.0000868056,0.0003472222
558519.9100237540,-9.8039245609,0.0419616699,-0.0978088379,-0.0000217014,-0.0000325521,-0.0005859375
558519.9200237540,-9.8046875003,0.0468444824,-0.0982666016,-0.0000542535,0.0000325521,0.0004774306
558519.9300237540,-9.8033142093,0.0369262695,-0.0990295410,-0.0000217014,0.0000759549,-0.0005533854
558519.9400237540,-9.8042297366,0.0485229492,-0.0975036621,-0.0000542535,-0.0000434028,0.0003146701
558519.9500237540,-9.8039245609,0.0387573242,-0.0979614258,-0.0000325521,-0.0000108507,-0.0002821181
558519.9600237540,-9.8045349124,0.0468444824,-0.0987243652,-0.0000217014,-0.0000325521,-0.0000217014
558519.9700237541,-9.8034667972,0.0393676758,-0.0984191895,-0.0000217014,-0.0000000000,0.0000868056
558519.9800237539,-9.8043823245,0.0447082520,-0.0978088379,-0.0000108507,0.0000868056,-0.0004014757
558519.9900237540,-9.8042297366,0.0444030762,-0.0978088379,-0.0000651042,-0.0000108507,0.0003906250
558520.0000237540,-9.8031616214,0.0396728516,-0.0993347168,-0.0000325521,-0.0000542535,-0.0006184896
558520.0100237540,-9.8049926761,0.0469970703,-0.0981140137,-0.0000651042,-0.0000542535,0.0004557292
558520.0200237540,-9.8023986820,0.0376892090,-0.0975036621,-0.0000108507,0.0000868056,-0.0004557292
558520.0300237540,-9.8049926761,0.0495910645,-0.0971984863,-0.0000217014,0.0000217014,0.0001627604
558520.0400237540,-9.8036193851,0.0378417969,-0.0987243652,-0.0000217014,-0.0000108507,-0.0000868056
558520.0500237540,-9.8043823245,0.0448608398,-0.0991821289,-0.0000325521,-0.0000542535,-0.0002278646
558520.0600237540,-9.8040771488,0.0425720215,-0.0967407227,-0.0000542535,-0.0000000000,0.0002821181
558520.0700237540,-9.8037719730,0.0425720215,-0.0975036621,-0.0000325521,0.0001193576,-0.0005533854
558520.0800237540,-9.8043823245,0.0453186035,-0.0990295410,-0.0000542535,-0.0000542535,0.0004991319
558520.0900237540,-9.8036193851,0.0384521484,-0.1000976563,-0.0000108507,-0.0000759549,-0.0005750868
558520.1000237541,-9.8051452640,0.0497436523,-0.0970458984,-0.0000434028,-0.0000000000,0.0003363715
558520.1100237540,-9.8027038577,0.0384521484,-0.0965881348,-0.0000108507,0.0001085069,-0.0002278646
558520.1200237540,-9.8049926761,0.0471496582,-0.0991821289,-0.0000217014,-0.0000542535,-0.0001410590
558520.1300237540,-9.8037719730,0.0405883789,-0.0990295410,-0.0000542535,-0.0000868056,0.0002278646
558520.1400237540,-9.8040771488,0.0434875488,-0.0979614258,-0.0000325521,0.0000325521,-0.0004991319
558520.1500237540,-9.8042297366,0.0459289551,-0.0971984863,-0.0000542535,0.0000868056,0.0004557292
558520.1600237540,-9.8033142093,0.0384521484,-0.0991821289,-0.0000217014,-0.0000000000,-0.0005859375
558520.1700237540,-9.8048400882,0.0480651855,-0.0993347168,-0.0000325521,-0.0000868056,0.0003906250
558520.1800237540,-9.8036193851,0.0376892090,-0.0970458984,0.0000108507,-0.0000000000,-0.0003363715
558520.1900237540,-9.8046875003,0.0480651855,-0.0976562500,-0.0000542535,0.0000976562,0.0000000000
558520.2000237540,-9.8033142093,0.0401306152,-0.0979614258,-0.0000759549,-0.0000000000,0.0000542535
558520.2100237550,-9.8043823245,0.0444030762,-0.0990295410,-0.0000325521,-0.0000542535,-0.0003906250
558520.2200237550,-9.8043823245,0.0434875488,-0.0976562500,-0.0000542535,-0.0000000000,0.0004231771
558520.2300237550,-9.8033142093,0.0407409668,-0.0979614258,-0.0000108507,0.0000868056,-0.0006401910
558520.2400237550,-9.8045349124,0.0473022461,-0.0987243652,-0.0000434028,-0.0000434028,0.0004665799
558520.2500237550,-9.8031616214,0.0370788574,-0.0982666016,-0.0000108507,-0.0000108507,-0.0004991319
558520.2600237550,-9.8056030277,0.0485229492,-0.0971984863,-0.0000542535,0.0000325521,0.0002170139
558520.2700237550,-9.8028564456,0.0396728516,-0.0981140137,-0.0000434028,-0.0000108507,-0.0001410590
558520.2800237550,-9.8042297366,0.0454711914,-0.0985717773,-0.0000434028,-0.0000000000,-0.0001953125
558520.2900237550,-9.8042297366,0.0415039063,-0.0971984863,-0.0000325521,0.0000217014,0.0002495660
558520.3000237549,-9.8036193851,0.0434875488,-0.0984191895,0.0000000000,-0.0000325521,-0.0004774306
558520.3100237550,-9.8042297366,0.0448608398,-0.0975036621,-0.0000434028,0.0000108507,0.0003689236
558520.3200237550,-9.8033142093,0.0405883789,-0.0990295410,-0.0000434028,0.0000217014,-0.0005316840
558520.3300237550,-9.8052978519,0.0460815430,-0.0978088379,-0.0000651042,-0.0000542535,0.0003906250
558520.3400237550,-9.8031616214,0.0390625000,-0.0982666016,-0.0000217014,0.0000108507,-0.0004557292
558520.3500237550,-9.8051452640,0.0492858887,-0.0979614258,-0.0000434028,0.0000217014,0.0002278646
558520.3600237550,-9.8031616214,0.0375366211,-0.0987243652,-0.0000108507,-0.0000325521,-0.0002061632
558520.3700237550,-9.8034667972,0.0468444824,-0.0987243652,-0.0000217014,0.0000434028,-0.0000651042
558520.3800237550,-9.8039245609,0.0418090820,-0.0979614258,-0.0000217014,-0.0000325521,0.0001627604
558520.3900237550,-9.8037719730,0.0440979004,-0.0976562500,-0.0000434028,0.0000108507,-0.0004882812
558520.4000237550,-9.8043823245,0.0440979004,-0.0979614258,-0.0000759549,-0.0000000000,0.0004231771
558520.4100237550,-9.8033142093,0.0396728516,-0.0987243652,-0.0000325521,-0.0000000000,-0.0005859375
558520.4200237551,-9.8048400882,0.0482177734,-0.0979614258,-0.0000434028,-0.0000108507,0.0004448785
558520.4300237549,-9.8028564456,0.0381469727,-0.0979614258,-0.0000108507,0.0000217014,-0.0004557292
558520.4400237550,-9.8052978519,0.0476074219,-0.0982666016,-0.0000217014,-0.0000000000,0.0001736111
558520.4500237550,-9.8037719730,0.0379943848,-0.0984191895,-0.0000325521,-0.0000000000,-0.0001193576
558520.4600237550,-9.8046875003,0.0476074219,-0.0981140137,-0.0000542535,-0.0000000000,-0.0001627604
558520.4700237550,-9.8031616214,0.0419616699,-0.0978088379,-0.0000651042,-0.0000325521,0.0001736111
558520.4800237550,-9.8033142093,0.0421142578,-0.0985717773,-0.0000434028,-0.0000000000,-0.0004340278
558520.4900237550,-9.8056030277,0.0445556641,-0.0984191895,-0.0000325521,-0.0000000000,0.0004340278
558520.5000237550,-9.8033142093,0.0408935547,-0.0979614258,0.0000000000,-0.0000000000,-0.0005750868
558520.5100237550,-9.8045349124,0.0476074219,-0.0976562500,-0.0000325521,0.0000217014,0.0004123264
558520.5200237550,-9.8027038577,0.0384521484,-0.0994873047,-0.0000217014,-0.0000000000,-0.0004557292
558520.5300237550,-9.8049926761,0.0473022461,-0.0982666016,-0.0000434028,-0.0000000000,0.0002170139
558520.5400237550,-9.8033142093,0.0395202637,-0.0987243652,-0.0000217014,0.0000108507,-0.0002278646
558520.5500237549,-9.8045349124,0.0479125977,-0.0968933106,-0.0000434028,-0.0000000000,-0.0000434028
558520.5600237550,-9.8040771488,0.0399780273,-0.0981140137,-0.0000217014,0.0000108507,0.0000868056
558520.5700237550,-9.8040771488,0.0439453125,-0.1008605957,-0.0000217014,-0.0000000000,-0.0003146701
558520.5800237550,-9.8043823245,0.0439453125,-0.0971984863,-0.0000325521,-0.0000108507,0.0002929687
558520.5900237550,-9.8031616214,0.0421142578,-0.0965881348,-0.0000217014,0.0000108507,-0.0005208333
558520.6000237550,-9.8051452640,0.0448608398,-0.0978088379,-0.0000651042,-0.0000000000,0.0004123264
558520.6100237550,-9.8030090335,0.0398254395,-0.1007080078,-0.0000434028,0.0000108507,-0.0005316840
558520.6200237550,-9.8048400882,0.0476074219,-0.0975036621,-0.0000325521,-0.0000108507,0.0003472222
558520.6300237550,-9.8040771488,0.0393676758,-0.0965881348,-0.0000217014,0.0000217014,-0.0004014757
558520.6400237550,-9.8048400882,0.0479125977,-0.0991821289,-0.0000542535,-0.0000000000,0.0001844618
558520.6500237550,-9.8031616214,0.0378417969,-0.0985717773,-0.0000108507,-0.0000108507,-0.0001627604
558520.6600237550,-9.8045349124,0.0479125977,-0.0982666016,-0.0000434028,-0.0000000000,-0.0001193576
558520.6700237551,-9.8043823245,0.0413513184,-0.0973510742,-0.0000651042,-0.0000000000,0.0001410590
558520.6800237549,-9.8039245609,0.0430297852,-0.0982666016,-0.0000434028,0.0000108507,-0.0004123264
558520.6900237550,-9.8042297366,0.0437927246,-0.0988769531,-0.0000434028,-0.0000000000,0.0003797743
558520.7000237550,-9.8037719730,0.0407409668,-0.0976562500,-0.0000108507,0.0000108507,-0.0005533854
558520.7100237550,-9.8043823245,0.0465393066,-0.0973510742,-0.0000434028,-0.0000000000,0.0004123264
558520.7200237550,-9.8020935062,0.0389099121,-0.0984191895,-0.0000217014,-0.0000000000,-0.0004774306
558520.7300237550,-9.8049926761,0.0482177734,-0.0991821289,-0.0000542535,-0.0000000000,0.0002061632
558520.7400237550,-9.8034667972,0.0386047363,-0.0985717773,-0.0000434028,-0.0000000000,-0.0001953125
558520.7500237550,-9.8046875003,0.0466918945,-0.0968933106,-0.0000325521,-0.0000000000,-0.0001410590
558520.7600237550,-9.8037719730,0.0411987305,-0.0968933106,-0.0000325521,0.0000108507,0.0002170139
558520.7700237550,-9.8045349124,0.0434875488,-0.0999450684,0.0000000000,-0.0000000000,-0.0005099826
558520.7800237550,-9.8045349124,0.0460815430,-0.0991821289,-0.0000651042,-0.0000325521,0.0004774306
558520.7900237550,-9.8033142093,0.0389099121,-0.0968933106,-0.0000325521,0.0000108507,-0.0006401910
558520.8000237549,-9.8049926761,0.0479125977,-0.0964355469,-0.0000759549,-0.0000108507,0.0003906250
558520.8100237550,-9.8033142093,0.0378417969,-0.0991821289,-0.0000325521,0.0000108507,-0.0003797743
558520.8200237550,-9.8048400882,0.0489807129,-0.0993347168,-0.0000217014,-0.0000000000,0.0000542535
558520.8300237550,-9.8034667972,0.0393676758,-0.0973510742,-0.0000325521,-0.0000108507,0.0000325521
558520.8400237550,-9.8039245609,0.0439453125,-0.0971984863,-0.0000434028,0.0000217014,-0.0003255208
558520.8500237550,-9.8045349124,0.0439453125,-0.0987243652,-0.0000325521,-0.0000000000,0.0003580729
558520.8600237550,-9.8028564456,0.0418090820,-0.0990295410,-0.0000217014,-0.0000325521,-0.0006184896
558520.8700237550,-9.8045349124,0.0463867188,-0.0968933106,-0.0000651042,0.0000108507,0.0004665799
558520.8800237550,-9.8036193851,0.0372314453,-0.0978088379,-0.0000434028,0.0000108507,-0.0004991319
558520.8900237550,-9.8045349124,0.0491333008,-0.0984191895,-0.0000434028,-0.0000000000,0.0002495660
558520.9000237550,-9.8036193851,0.0386047363,-0.0985717773,-0.0000217014,-0.0000000000,-0.0001085069
558520.9100237550,-9.8051452640,0.0463867188,-0.0971984863,-0.0000325521,-0.0000108507,-0.0002387153
558520.9200237551,-9.8039245609,0.0419616699,-0.0985717773,-0.0000325521,0.0000108507,0.0003038194
558520.9300237549,-9.8036193851,0.0411987305,-0.0991821289,-0.0000542535,-0.0000000000,-0.0005750868
558520.9400237550,-9.8049926761,0.0463867188,-0.0973510742,-0.0000651042,-0.0000000000,0.0004774306
558520.9500237550,-9.8036193851,0.0384521484,-0.0984191895,-0.0000325521,0.0000325521,-0.0005208333
558520.9600237550,-9.8054504398,0.0485229492,-0.0979614258,-0.0000325521,-0.0000108507,0.0003255208
558520.9700237550,-9.8034667972,0.0381469727,-0.0985717773,-0.0000108507,-0.0000000000,-0.0003146701
558520.9800237550,-9.8045349124,0.0469970703,-0.0975036621,-0.0000325521,-0.0000108507,0.0000000000
558520.9900237550,-9.8037719730,0.0398254395,-0.0971984863,-0.0000542535,-0.0000000000,0.0000868056
558521.0000237550,-9.8037719730,0.0451660156,-0.0993347168,-0.0000325521,-0.0000000000,-0.0004014757
558521.0100237550,-9.8036193851,0.0436401367,-0.0985717773,-0.0000542535,0.0000108507,0.0003906250
558521.0200237550,-9.8036193851,0.0402832031,-0.0987243652,0.0000217014,-0.0000108507,-0.0005750868
558521.0300237550,-9.8049926761,0.0463867188,-0.0968933106,-0.0000434028,-0.0000000000,0.0004340278
558521.0400237550,-9.8030090335,0.0395202637,-0.0978088379,-0.0000108507,0.0000108507,-0.0004774306
558521.0500237549,-9.8046875003,0.0485229492,-0.0993347168,-0.0000434028,-0.0000000000,0.0002604167
558521.0600237550,-9.8037719730,0.0392150879,-0.0993347168,-0.0000434028,0.0000108507,-0.0002821181
558521.0700237550,-9.8037719730,0.0477600098,-0.0978088379,-0.0000759549,0.0000108507,0.0000217014
558521.0800237550,-9.8028564456,0.0390625000,-0.0961303711,-0.0000325521,-0.0000108507,0.0000000000
558521.0900237550,-9.8043823245,0.0459289551,-0.0996398926,-0.0000108507,0.0000325521,-0.0002278646
558521.1000237550,-9.8042297366,0.0430297852,-0.1004028320,-0.0000651042,-0.0000108507,0.0002604167
558521.1100237550,-9.8039245609,0.0416564941,-0.0965881348,0.0000000000,-0.0000108507,-0.0005099826
558521.1200237550,-9.8054504398,0.0453186035,-0.0967407227,-0.0000542535,0.0000108507,0.0004340278
558521.1300237550,-9.8031616214,0.0401306152,-0.0996398926,-0.0000434028,0.0000217014,-0.0005750868
558521.1400237550,-9.8043823245,0.0482177734,-0.1002502441,-0.0000434028,-0.0000325521,0.0003689236
558521.1500237550,-9.8043823245,0.0367736816,-0.0962829590,-0.0000217014,0.0000325521,-0.0003472222
558521.1600237550,-9.8051452640,0.0476074219,-0.0962829590,-0.0000434028,-0.0000000000,0.0000542535
558521.1700237551,-9.8042297366,0.0395202637,-0.1000976563,-0.0000108507,0.0000108507,0.0000000000
558521.1800237549,-9.8042297366,0.0460815430,-0.1005554199,-0.0000325521,-0.0000108507,-0.0002604167
558521.1900237550,-9.8028564456,0.0418090820,-0.0964355469,-0.0000759549,-0.0000000000,0.0002712674
558521.2000237550,-9.8039245609,0.0407409668,-0.0961303711,-0.0000108507,0.0000108507,-0.0005099826
558521.2100237550,-9.8040771488,0.0460815430,-0.0994873047,-0.0000651042,-0.0000000000,0.0004557292
558521.2200237550,-9.8031616214,0.0393676758,-0.1002502441,-0.0000217014,-0.0000000000,-0.0005642361
558521.2300237550,-9.8046875003,0.0477600098,-0.0973510742,-0.0000325521,-0.0000000000,0.0003580729
558521.2400237550,-9.8028564456,0.0373840332,-0.0962829590,-0.0000108507,-0.0000000000,-0.0003146701
558521.2500237550,-9.8049926761,0.0486755371,-0.0990295410,-0.0000325521,0.0000217014,0.0000000000
558521.2600237550,-9.8033142093,0.0405883789,-0.0999450684,-0.0000651042,-0.0000000000,0.0000434028
558521.2700237550,-9.8043823245,0.0440979004,-0.0979614258,-0.0000217014,-0.0000000000,-0.0003472222
558521.2800237560,-9.8046875003,0.0434875488,-0.0959777832,-0.0000542535,-0.0000000000,0.0004123264
558521.2900237560,-9.8036193851,0.0411987305,-0.0984191895,0.0000108507,0.0000325521,-0.0006076389
558521.3000237560,-9.8051452640,0.0474548340,-0.1011657715,-0.0000325521,-0.0000217014,0.0004557292
558521.3100237560,-9.8036193851,0.0373840332,-0.0975036621,-0.0000217014,-0.0000000000,-0.0005208333
558521.3200237560,-9.8049926761,0.0479125977,-0.0947570801,-0.0000434028,0.0000108507,0.0002821181
558521.3300237560,-9.8030090335,0.0390625000,-0.0987243652,-0.0000325521,0.0000108507,-0.0002387153
558521.3400237560,-9.8048400882,0.0468444824,-0.1002502441,-0.0000542535,-0.0000000000,-0.0000542535
558521.3500237560,-9.8040771488,0.0395202637,-0.0973510742,-0.0000325521,-0.0000108507,0.0001193576
558521.3600237560,-9.8043823245,0.0445556641,-0.0961303711,-0.0000217014,-0.0000000000,-0.0003472222
558521.3700237561,-9.8036193851,0.0439453125,-0.0985717773,-0.0000434028,0.0000217014,0.0003472222
558521.3800237559,-9.8037719730,0.0411987305,-0.1005554199,0.0000000000,-0.0000108507,-0.0005425347
558521.3900237560,-9.8043823245,0.0445556641,-0.0968933106,-0.0000542535,-0.0000108507,0.0004340278
558521.4000237560,-9.8030090335,0.0393676758,-0.0959777832,-0.0000434028,0.0000217014,-0.0005316840
558521.4100237560,-9.8046875003,0.0488281250,-0.0994873047,-0.0000434028,-0.0000000000,0.0003472222
558521.4200237560,-9.8034667972,0.0376892090,-0.0996398926,-0.0000108507,-0.0000000000,-0.0003255208
558521.4300237560,-9.8043823245,0.0469970703,-0.0976562500,-0.0000325521,-0.0000000000,0.0000434028
558521.4400237560,-9.8034667972,0.0405883789,-0.0970458984,-0.0000217014,-0.0000000000,0.0000000000
558521.4500237560,-9.8045349124,0.0460815430,-0.0991821289,-0.0000434028,0.0000217014,-0.0002495660
558521.4600237560,-9.8042297366,0.0416564941,-0.0994873047,-0.0000976562,-0.0000000000,0.0002821181
558521.4700237560,-9.8039245609,0.0410461426,-0.0973510742,-0.0000108507,-0.0000000000,-0.0005425347
558521.4800237560,-9.8036193851,0.0468444824,-0.0968933106,-0.0000542535,-0.0000000000,0.0004774306
558521.4900237561,-9.8031616214,0.0402832031,-0.0990295410,-0.0000325521,-0.0000000000,-0.0005750868
558521.5000237559,-9.8051452640,0.0476074219,-0.0996398926,-0.0000325521,-0.0000108507,0.0003363715
558521.5100237560,-9.8031616214,0.0370788574,-0.0982666016,-0.0000217014,-0.0000000000,-0.0003363715
558521.5200237560,-9.8049926761,0.0482177734,-0.0964355469,-0.0000651042,-0.0000000000,0.0000108507
558521.5300237560,-9.8031616214,0.0399780273,-0.0982666016,-0.0000434028,0.0000108507,0.0000434028
558521.5400237560,-9.8039245609,0.0440979004,-0.0996398926,-0.0000434028,-0.0000000000,-0.0003363715
558521.5500237560,-9.8043823245,0.0431823730,-0.0975036621,-0.0000434028,-0.0000000000,0.0003580729
558521.5600237560,-9.8037719730,0.0413513184,-0.0970458984,-0.0000108507,0.0000108507,-0.0005750868
558521.5700237560,-9.8048400882,0.0471496582,-0.0987243652,-0.0000434028,-0.0000000000,0.0004665799
558521.5800237560,-9.8031616214,0.0376892090,-0.0991821289,-0.0000217014,-0.0000000000,-0.0005425347
558521.5900237560,-9.8052978519,0.0480651855,-0.0975036621,-0.0000542535,-0.0000000000,0.0002712674
558521.6000237560,-9.8028564456,0.0393676758,-0.0975036621,-0.0000325521,0.0000108507,-0.0002170139
558521.6100237560,-9.8042297366,0.0476074219,-0.0991821289,-0.0000542535,-0.0000108507,-0.0001085069
558521.6200237561,-9.8039245609,0.0404357910,-0.0991821289,-0.0000325521,-0.0000108507,0.0001844618
558521.6300237559,-9.8037719730,0.0437927246,-0.0985717773,-0.0000217014,0.0000108507,-0.0004665799
558521.6400237560,-9.8048400882,0.0448608398,-0.0968933106,-0.0000325521,-0.0000108507,0.0004340278
558521.6500237560,-9.8028564456,0.0401306152,-0.0982666016,-0.0000217014,0.0000217014,-0.0006184896
558521.6600237560,-9.8046875003,0.0474548340,-0.0985717773,-0.0000542535,-0.0000000000,0.0004340278
558521.6700237560,-9.8022460941,0.0379943848,-0.0978088379,-0.0000325521,-0.0000000000,-0.0004231771
558521.6800237560,-9.8056030277,0.0494384766,-0.0971984863,-0.0000434028,-0.0000000000,0.0001627604
558521.6900237560,-9.8031616214,0.0379943848,-0.0981140137,-0.0000108507,-0.0000000000,-0.0000868056
558521.7000237560,-9.8046875003,0.0462341309,-0.0985717773,-0.0000108507,-0.0000000000,-0.0002387153
558521.7100237560,-9.8040771488,0.0421142578,-0.0979614258,-0.0000325521,-0.0000000000,0.0003472222
558521.7200237560,-9.8027038577,0.0425720215,-0.0975036621,-0.0000325521,-0.0000000000,-0.0006293403
558521.7300237560,-9.8052978519,0.0463867188,-0.0984191895,-0.0000542535,0.0000108507,0.0005099826
558521.7400237561,-9.8022460941,0.0378417969,-0.0990295410,-0.0000434028,-0.0000000000,-0.0005642361
558521.7500237559,-9.8048400882,0.0483703613,-0.0981140137,-0.0000542535,-0.0000000000,0.0002929687
558521.7600237560,-9.8031616214,0.0389099121,-0.0976562500,-0.0000217014,0.0000108507,-0.0001953125
558521.7700237560,-9.8045349124,0.0471496582,-0.0984191895,-0.0000217014,-0.0000000000,-0.0001410590
558521.7800237560,-9.8040771488,0.0401306152,-0.0988769531,-0.0000434028,-0.0000000000,0.0002495660
558521.7900237560,-9.8040771488,0.0427246094,-0.0985717773,-0.0000542535,-0.0000000000,-0.0005425347
558521.8000237560,-9.8043823245,0.0462341309,-0.0975036621,-0.0000434028,-0.0000325521,0.0005099826
558521.8100237560,-9.8028564456,0.0384521484,-0.0984191895,-0.0000217014,0.0000217014,-0.0005859375
558521.8200237560,-9.8056030277,0.0485229492,-0.0985717773,-0.0000542535,-0.0000000000,0.0004123264
558521.8300237560,-9.8033142093,0.0378417969,-0.0982666016,-0.0000108507,-0.0000000000,-0.0003255208
558521.8400237560,-9.8046875003,0.0482177734,-0.0985717773,-0.0000325521,-0.0000000000,0.0000217014
558521.8500237560,-9.8031616214,0.0393676758,-0.0982666016,-0.0000434028,0.0000108507,0.0000108507
558521.8600237560,-9.8042297366,0.0450134277,-0.0988769531,-0.0000325521,-0.0000000000,-0.0002929687
558521.8700237561,-9.8039245609,0.0434875488,-0.0988769531,-0.0000542535,-0.0000000000,0.0003363715
558521.8800237559,-9.8037719730,0.0422668457,-0.0978088379,-0.0000325521,-0.0000000000,-0.0005642361
558521.8900237560,-9.8051452640,0.0463867188,-0.0987243652,-0.0000325521,-0.0000000000,0.0004665799
558521.9000237560,-9.8027038577,0.0378417969,-0.0985717773,-0.0000217014,0.0000108507,-0.0005642361
558521.9100237560,-9.8046875003,0.0492858887,-0.0978088379,-0.0000325521,-0.0000000000,0.0003363715
558521.9200237560,-9.8031616214,0.0382995605,-0.0975036621,-0.0000434028,-0.0000000000,-0.0003038194
558521.9300237560,-9.8048400882,0.0474548340,-0.0985717773,-0.0000325521,0.0000108507,-0.0000217014
558521.9400237560,-9.8039245609,0.0393676758,-0.0982666016,-0.0000434028,-0.0000108507,0.0000759549
558521.9500237560,-9.8042297366,0.0456237793,-0.0982666016,-0.0000434028,-0.0000000000,-0.0003797743
558521.9600237560,-9.8039245609,0.0427246094,-0.0973510742,-0.0000325521,-0.0000000000,0.0003689236
