t(s),acc_x,acc_y,acc_z,gyro_x,gyro_y,gyro_z
559012.0000242130,-0.0897216797,0.0070190430,9.7817993167,-0.0005425347,0.0000108507,0.0000325521
559012.0100242130,-0.0904846191,0.0067138672,9.7816467288,0.0004774306,-0.0000217014,0.0000325521
559012.0200242130,-0.0869750977,0.0012207031,9.7814941409,-0.0006184896,-0.0000000000,0.0000325521
559012.0300242130,-0.0871276855,0.0097656250,9.7817993167,0.0004774306,-0.0000000000,0.0000325521
559012.0400242130,-0.0895690918,0.0013732910,9.7811889652,-0.0004774306,0.0000108507,0.0000325521
559012.0500242130,-0.0910949707,0.0093078613,9.7813415531,0.0001736111,-0.0000000000,0.0000217014
559012.0600242130,-0.0881958008,0.0012207031,9.7810363773,-0.0001302083,-0.0000000000,0.0000217014
559012.0700242131,-0.0866699219,0.0090026855,9.7814941409,-0.0001627604,-0.0000000000,0.0000325521
559012.0800242129,-0.0894165039,0.0050354004,9.7814941409,0.0002170139,-0.0000000000,0.0000325521
559012.0900242130,-0.0903320313,0.0050354004,9.7817993167,-0.0005099826,-0.0000000000,0.0000325521
559012.1000242130,-0.0863647461,0.0068664551,9.7816467288,0.0004774306,-0.0000325521,0.0000325521
559012.1100242130,-0.0866699219,0.0018310547,9.7813415531,-0.0006184896,0.0000108507,0.0000217014
559012.1200242130,-0.0898742676,0.0100708008,9.7814941409,0.0004557292,-0.0000000000,0.0000325521
559012.1300242130,-0.0895690918,0.0010681152,9.7814941409,-0.0004882812,-0.0000000000,0.0000325521
559012.1400242130,-0.0880432129,0.0091552734,9.7814941409,0.0001519097,-0.0000108507,0.0000325521
559012.1500242130,-0.0871276855,0.0012207031,9.7813415531,-0.0000651042,0.0000217014,0.0000325521
559012.1600242130,-0.0897216797,0.0100708008,9.7811889652,-0.0002278646,-0.0000000000,0.0000217014
559012.1700242130,-0.0900268555,0.0050354004,9.7816467288,0.0002821181,-0.0000000000,0.0000325521
559012.1800242130,-0.0874328613,0.0035095215,9.7816467288,-0.0005642361,-0.0000000000,0.0000217014
559012.1900242131,-0.0863647461,0.0065612793,9.7813415531,0.0004774306,-0.0000000000,0.0000325521
559012.2000242129,-0.0894165039,0.0033569336,9.7805786136,-0.0006401910,0.0000108507,0.0000217014
559012.2100242130,-0.0898742676,0.0097656250,9.7810363773,0.0003797743,-0.0000000000,0.0000217014
559012.2200242130,-0.0875854492,-0.0004577637,9.7819519046,-0.0003363715,-0.0000000000,0.0000434028
559012.2300242130,-0.0871276855,0.0099182129,9.7816467288,0.0000434028,-0.0000000000,0.0000325521
559012.2400242130,-0.0892639160,0.0035095215,9.7813415531,0.0000217014,-0.0000000000,0.0000217014
559012.2500242130,-0.0901794434,0.0073242188,9.7814941409,-0.0003580729,0.0000108507,0.0000217014
559012.2600242130,-0.0886535645,0.0030517578,9.7813415531,0.0003797743,-0.0000217014,0.0000434028
559012.2700242130,-0.0871276855,0.0047302246,9.7810363773,-0.0005859375,0.0000217014,0.0000217014
559012.2800242130,-0.0880432129,0.0099182129,9.7813415531,0.0004991319,-0.0000217014,0.0000542535
559012.2900242130,-0.0895690918,0.0007629395,9.7813415531,-0.0005750868,0.0000108507,0.0000217014
559012.3000242130,-0.0888061523,0.0093078613,9.7805786136,0.0004014757,-0.0000217014,0.0000325521
559012.3100242130,-0.0871276855,0.0010681152,9.7817993167,-0.0003038194,-0.0000000000,0.0000108507
559012.3200242131,-0.0895690918,0.0105285645,9.7819519046,-0.0000542535,-0.0000000000,0.0000325521
559012.3300242129,-0.0892639160,0.0024414063,9.7816467288,0.0001193576,0.0000217014,0.0000325521
559012.3400242130,-0.0888061523,0.0061035156,9.7811889652,-0.0004882812,-0.0000108507,0.0000325521
559012.3500242130,-0.0877380371,0.0065612793,9.7807312015,0.0005208333,-0.0000217014,0.0000542535
559012.3600242130,-0.0881958008,0.0033569336,9.7811889652,-0.0006401910,0.0000325521,0.0000434028
559012.3700242130,-0.0892639160,0.0093078613,9.7819519046,0.0004665799,-0.0000217014,0.0000217014
559012.3800242130,-0.0886535645,-0.0001525879,9.7810363773,-0.0004557292,-0.0000000000,0.0000217014
559012.3900242130,-0.0875854492,0.0106811523,9.7817993167,0.0001085069,0.0000108507,0.0000325521
559012.4000242130,-0.0881958008,0.0018310547,9.7817993167,-0.0000434028,-0.0000000000,0.0000325521
559012.4100242130,-0.0895690918,0.0079345703,9.7813415531,-0.0002712674,0.0000108507,0.0000325521
559012.4200242130,-0.0886535645,0.0039672852,9.7810363773,0.0003255208,-0.0000217014,0.0000325521
559012.4300242130,-0.0891113281,0.0053405762,9.7813415531,-0.0005316840,0.0000217014,0.0000217014
559012.4400242131,-0.0875854492,0.0077819824,9.7814941409,0.0004665799,-0.0000000000,0.0000325521
559012.4500242129,-0.0886535645,0.0013732910,9.7807312015,-0.0005967882,0.0000108507,0.0000325521
559012.4600242130,-0.0886535645,0.0086975098,9.7816467288,0.0003906250,-0.0000000000,0.0000434028
559012.4700242130,-0.0881958008,0.0018310547,9.7819519046,-0.0004665799,0.0000108507,0.0000434028
559012.4800242130,-0.0891113281,0.0100708008,9.7816467288,0.0001953125,-0.0000000000,0.0000217014
559012.4900242130,-0.0886535645,0.0004577637,9.7817993167,-0.0001627604,-0.0000000000,0.0000217014
559012.5000242130,-0.0880432129,0.0097656250,9.7814941409,-0.0000976562,-0.0000000000,0.0000217014
559012.5100242130,-0.0888061523,0.0035095215,9.7813415531,0.0001844618,-0.0000000000,0.0000217014
559012.5200242130,-0.0886535645,0.0065612793,9.7817993167,-0.0005316840,-0.0000000000,0.0000325521
559012.5300242130,-0.0891113281,0.0065612793,9.7808837894,0.0004882812,-0.0000217014,0.0000542535
559012.5400242130,-0.0875854492,0.0021362305,9.7814941409,-0.0006401910,0.0000217014,0.0000325521
559012.5500242130,-0.0886535645,0.0102233887,9.7819519046,0.0004557292,-0.0000000000,0.0000325521
559012.5600242130,-0.0885009766,0.0006103516,9.7813415531,-0.0004665799,0.0000108507,0.0000325521
559012.5700242131,-0.0885009766,0.0099182129,9.7816467288,0.0001736111,-0.0000108507,0.0000217014
559012.5800242129,-0.0880432129,0.0018310547,9.7811889652,-0.0000759549,-0.0000000000,0.0000217014
559012.5900242130,-0.0881958008,0.0094604492,9.7814941409,-0.0002712674,-0.0000000000,0.0000434028
559012.6000242130,-0.0891113281,0.0035095215,9.7811889652,0.0002712674,-0.0000000000,0.0000325521
559012.6100242130,-0.0885009766,0.0050354004,9.7816467288,-0.0005642361,0.0000108507,0.0000434028
559012.6200242130,-0.0881958008,0.0083923340,9.7808837894,0.0005533854,-0.0000434028,0.0000325521
559012.6300242130,-0.0880432129,0.0012207031,9.7819519046,-0.0006293403,0.0000108507,0.0000325521
559012.6400242130,-0.0888061523,0.0108337402,9.7816467288,0.0003689236,-0.0000000000,0.0000325521
559012.6500242130,-0.0888061523,-0.0000000000,9.7817993167,-0.0002929687,-0.0000000000,0.0000217014
559012.6600242130,-0.0875854492,0.0097656250,9.7816467288,-0.0001193576,0.0000108507,0.0000325521
559012.6700242130,-0.0883483887,0.0039672852,9.7817993167,0.0001736111,-0.0000000000,0.0000434028
559012.6800242130,-0.0894165039,0.0061035156,9.7817993167,-0.0004774306,-0.0000000000,0.0000325521
559012.6900242131,-0.0892639160,0.0065612793,9.7810363773,0.0004774306,-0.0000217014,0.0000651042
559012.7000242129,-0.0892639160,0.0030517578,9.7805786136,-0.0006293403,0.0000217014,0.0000108507
559012.7100242130,-0.0877380371,0.0094604492,9.7810363773,0.0004448785,-0.0000325521,0.0000325521
559012.7200242130,-0.0891113281,0.0007629395,9.7814941409,-0.0004991319,0.0000108507,0.0000325521
559012.7300242130,-0.0880432129,0.0090026855,9.7817993167,0.0001844618,-0.0000000000,0.0000434028
559012.7400242130,-0.0885009766,0.0016784668,9.7817993167,-0.0001410590,0.0000108507,0.0000325521
559012.7500242130,-0.0883483887,0.0100708008,9.7817993167,-0.0001410590,0.0000108507,0.0000325521
559012.7600242130,-0.0889587402,0.0019836426,9.7805786136,0.0001844618,-0.0000108507,0.0000108507
559012.7700242130,-0.0886535645,0.0067138672,9.7814941409,-0.0003906250,0.0000108507,0.0000325521
559012.7800242130,-0.0891113281,0.0074768066,9.7810363773,0.0003689236,-0.0000000000,0.0000325521
559012.7900242130,-0.0891113281,0.0035095215,9.7817993167,-0.0006401910,0.0000217014,0.0000325521
559012.8000242130,-0.0881958008,0.0080871582,9.7808837894,0.0004882812,-0.0000217014,0.0000542535
559012.8100242130,-0.0862121582,0.0007629395,9.7813415531,-0.0005425347,-0.0000108507,0.0000325521
559012.8200242131,-0.0894165039,0.0114440918,9.7819519046,0.0002929687,-0.0000000000,0.0000325521
559012.8300242129,-0.0895690918,0.0007629395,9.7821044925,-0.0002170139,-0.0000000000,0.0000217014
559012.8400242130,-0.0874328613,0.0076293945,9.7822570804,-0.0001410590,0.0000108507,0.0000325521
559012.8500242130,-0.0877380371,0.0044250488,9.7814941409,0.0002604167,0.0000108507,0.0000325521
559012.8600242130,-0.0900268555,0.0057983398,9.7808837894,-0.0005642361,0.0000217014,0.0000325521
559012.8700242130,-0.0898742676,0.0073242188,9.7817993167,0.0004882812,-0.0000217014,0.0000217014
559012.8800242130,-0.0881958008,0.0009155273,9.7814941409,-0.0006184896,-0.0000000000,0.0000325521
559012.8900242130,-0.0868225098,0.0103759766,9.7814941409,0.0004340278,-0.0000434028,0.0000108507
559012.9000242130,-0.0886535645,0.0006103516,9.7821044925,-0.0003689236,0.0000325521,0.0000217014
559012.9100242130,-0.0895690918,0.0103759766,9.7811889652,0.0000434028,0.0000108507,0.0000325521
559012.9200242130,-0.0869750977,0.0015258789,9.7819519046,0.0000000000,0.0000217014,0.0000325521
559012.9300242130,-0.0881958008,0.0080871582,9.7825622562,-0.0003580729,-0.0000000000,0.0000325521
559012.9400242131,-0.0885009766,0.0047302246,9.7801208499,0.0003797743,-0.0000000000,0.0000325521
559012.9500242129,-0.0897216797,0.0041198730,9.7813415531,-0.0006293403,-0.0000000000,0.0000325521
559012.9600242130,-0.0885009766,0.0088500977,9.7810363773,0.0004991319,-0.0000325521,0.0000325521
559012.9700242130,-0.0869750977,0.0009155273,9.7811889652,-0.0005533854,0.0000434028,0.0000325521
559012.9800242130,-0.0885009766,0.0112915039,9.7824096683,0.0003038194,-0.0000000000,0.0000325521
559012.9900242130,-0.0903320313,0.0004577637,9.7810363773,-0.0002821181,-0.0000108507,0.0000434028
559013.0000242130,-0.0885009766,0.0085449219,9.7816467288,-0.0000651042,-0.0000542535,0.0000325521
559013.0100242130,-0.0862121582,0.0035095215,9.7810363773,0.0001085069,0.0000108507,0.0000217014
559013.0200242130,-0.0895690918,0.0067138672,9.7810363773,-0.0003689236,0.0000108507,0.0000434028
559013.0300242130,-0.0907897949,0.0062561035,9.7816467288,0.0003797743,0.0000108507,0.0000434028
559013.0400242130,-0.0878906250,0.0035095215,9.7816467288,-0.0005642361,0.0000325521,0.0000108507
559013.0500242140,-0.0859069824,0.0093078613,9.7808837894,0.0004665799,0.0000108507,0.0000325521
559013.0600242140,-0.0891113281,0.0030517578,9.7813415531,-0.0005859375,0.0000325521,0.0000217014
559013.0700242140,-0.0903320313,0.0085449219,9.7811889652,0.0003146701,-0.0000542535,0.0000325521
559013.0800242140,-0.0878906250,-0.0000000000,9.7804260257,-0.0003363715,-0.0000108507,0.0000325521
559013.0900242140,-0.0865173340,0.0106811523,9.7816467288,0.0000542535,-0.0000108507,0.0000217014
559013.1000242140,-0.0883483887,0.0032043457,9.7821044925,0.0000325521,-0.0000000000,0.0000325521
559013.1100242140,-0.0912475586,0.0074768066,9.7824096683,-0.0003906250,0.0000434028,0.0000108507
559013.1200242140,-0.0875854492,0.0042724609,9.7824096683,0.0004123264,0.0000108507,0.0000434028
559013.1300242140,-0.0862121582,0.0042724609,9.7817993167,-0.0006293403,0.0000325521,0.0000325521
559013.1400242141,-0.0878906250,0.0097656250,9.7808837894,0.0004774306,-0.0000000000,0.0000542535
559013.1500242139,-0.0917053223,0.0016784668,9.7802734378,-0.0005316840,-0.0000434028,0.0000325521
559013.1600242140,-0.0889587402,0.0086975098,9.7810363773,0.0002929687,-0.0000542535,0.0000217014
559013.1700242140,-0.0854492188,0.0015258789,9.7811889652,-0.0002495660,-0.0000000000,0.0000434028
559013.1800242140,-0.0886535645,0.0112915039,9.7819519046,-0.0000217014,0.0000108507,0.0000217014
559013.1900242140,-0.0909423828,0.0013732910,9.7811889652,0.0000217014,-0.0000000000,0.0000434028
559013.2000242140,-0.0886535645,0.0065612793,9.7816467288,-0.0003255208,0.0000108507,0.0000325521
559013.2100242140,-0.0869750977,0.0056457520,9.7824096683,0.0003580729,0.0000217014,0.0000651042
559013.2200242140,-0.0883483887,0.0051879883,9.7810363773,-0.0005642361,0.0000325521,0.0000217014
559013.2300242140,-0.0907897949,0.0073242188,9.7808837894,0.0004882812,-0.0000000000,0.0000325521
559013.2400242140,-0.0892639160,0.0009155273,9.7804260257,-0.0005859375,-0.0000542535,0.0000217014
559013.2500242140,-0.0866699219,0.0108337402,9.7811889652,0.0003689236,-0.0000542535,0.0000217014
559013.2600242140,-0.0878906250,0.0015258789,9.7813415531,-0.0003797743,0.0000217014,0.0000325521
559013.2700242141,-0.0915527344,0.0090026855,9.7825622562,0.0000434028,0.0000108507,0.0000325521
559013.2800242139,-0.0878906250,0.0015258789,9.7816467288,-0.0000217014,0.0000217014,0.0000434028
559013.2900242140,-0.0868225098,0.0090026855,9.7821044925,-0.0002495660,0.0000434028,0.0000217014
559013.3000242140,-0.0875854492,0.0054931641,9.7814941409,0.0002821181,-0.0000000000,0.0000108507
559013.3100242140,-0.0900268555,0.0036621094,9.7802734378,-0.0005316840,-0.0000325521,0.0000325521
559013.3200242140,-0.0889587402,0.0065612793,9.7805786136,0.0004774306,-0.0000651042,0.0000325521
559013.3300242140,-0.0868225098,0.0033569336,9.7813415531,-0.0006184896,-0.0000108507,0.0000325521
559013.3400242140,-0.0885009766,0.0097656250,9.7819519046,0.0004123264,0.0000108507,0.0000325521
559013.3500242140,-0.0889587402,0.0001525879,9.7821044925,-0.0004665799,0.0000651042,0.0000325521
559013.3600242140,-0.0889587402,0.0100708008,9.7824096683,0.0001844618,0.0000325521,0.0000108507
559013.3700242140,-0.0878906250,0.0021362305,9.7811889652,-0.0001085069,-0.0000108507,0.0000325521
559013.3800242140,-0.0875854492,0.0074768066,9.7802734378,-0.0002495660,-0.0000542535,0.0000325521
559013.3900242141,-0.0886535645,0.0032043457,9.7811889652,0.0002929687,-0.0000651042,0.0000434028
559013.4000242139,-0.0903320313,0.0062561035,9.7821044925,-0.0005642361,0.0000651042,0.0000217014
559013.4100242140,-0.0865173340,0.0073242188,9.7814941409,0.0004774306,0.0000325521,0.0000542535
559013.4200242140,-0.0871276855,0.0012207031,9.7814941409,-0.0006510417,0.0000434028,0.0000434028
559013.4300242140,-0.0903320313,0.0099182129,9.7817993167,0.0004448785,-0.0000651042,0.0000217014
559013.4400242140,-0.0894165039,0.0010681152,9.7804260257,-0.0004014757,-0.0000651042,0.0000434028
559013.4500242140,-0.0877380371,0.0103759766,9.7813415531,0.0000868056,-0.0000325521,0.0000325521
559013.4600242140,-0.0869750977,0.0015258789,9.7828674320,-0.0000325521,0.0000542535,0.0000325521
559013.4700242140,-0.0900268555,0.0076293945,9.7827148441,-0.0003038194,0.0000759549,0.0000434028
559013.4800242140,-0.0897216797,0.0044250488,9.7808837894,0.0003255208,-0.0000000000,0.0000325521
559013.4900242140,-0.0878906250,0.0050354004,9.7810363773,-0.0005642361,-0.0000434028,0.0000217014
559013.5000242140,-0.0877380371,0.0070190430,9.7808837894,0.0005208333,-0.0000434028,0.0000217014
559013.5100242140,-0.0894165039,0.0012207031,9.7811889652,-0.0005967882,-0.0000325521,0.0000217014
559013.5200242141,-0.0891113281,0.0108337402,9.7817993167,0.0003797743,0.0000217014,0.0000434028
559013.5300242139,-0.0878906250,0.0006103516,9.7822570804,-0.0004014757,0.0000651042,0.0000325521
559013.5400242140,-0.0872802734,0.0086975098,9.7817993167,0.0000542535,0.0000108507,0.0000434028
559013.5500242140,-0.0881958008,0.0015258789,9.7811889652,0.0000108507,-0.0000325521,0.0000217014
559013.5600242140,-0.0910949707,0.0083923340,9.7814941409,-0.0002821181,-0.0000325521,0.0000217014
559013.5700242140,-0.0894165039,0.0051879883,9.7811889652,0.0003689236,-0.0000651042,0.0000325521
559013.5800242140,-0.0865173340,0.0033569336,9.7817993167,-0.0006401910,-0.0000000000,0.0000108507
559013.5900242140,-0.0868225098,0.0080871582,9.7821044925,0.0005316840,0.0000759549,0.0000542535
559013.6000242140,-0.0900268555,0.0019836426,9.7817993167,-0.0005967882,0.0000759549,0.0000217014
559013.6100242140,-0.0891113281,0.0105285645,9.7813415531,0.0003255208,-0.0000542535,0.0000434028
559013.6200242140,-0.0856018066,0.0007629395,9.7814941409,-0.0003255208,-0.0000434028,0.0000217014
559013.6300242140,-0.0886535645,0.0082397461,9.7808837894,0.0000868056,-0.0000434028,0.0000217014
559013.6400242141,-0.0901794434,0.0019836426,9.7816467288,-0.0000542535,0.0000217014,0.0000325521
559013.6500242139,-0.0894165039,0.0091552734,9.7822570804,-0.0002712674,0.0000651042,0.0000325521
559013.6600242140,-0.0862121582,0.0038146973,9.7816467288,0.0002929687,-0.0000000000,0.0000325521
559013.6700242140,-0.0878906250,0.0038146973,9.7814941409,-0.0005533854,-0.0000000000,0.0000434028
559013.6800242140,-0.0906372070,0.0086975098,9.7814941409,0.0005316840,-0.0000759549,0.0000217014
559013.6900242140,-0.0881958008,0.0013732910,9.7805786136,-0.0006293403,-0.0000000000,0.0000217014
559013.7000242140,-0.0866699219,0.0100708008,9.7822570804,0.0004014757,-0.0000000000,0.0000325521
559013.7100242140,-0.0877380371,0.0006103516,9.7821044925,-0.0004014757,0.0000868056,0.0000217014
559013.7200242140,-0.0897216797,0.0108337402,9.7821044925,0.0000434028,-0.0000000000,0.0000325521
559013.7300242140,-0.0891113281,0.0021362305,9.7813415531,-0.0000217014,-0.0000325521,0.0000434028
559013.7400242140,-0.0871276855,0.0073242188,9.7807312015,-0.0002929687,-0.0000000000,0.0000325521
559013.7500242140,-0.0877380371,0.0044250488,9.7813415531,0.0003689236,-0.0000325521,0.0000217014
559013.7600242140,-0.0903320313,0.0050354004,9.7816467288,-0.0005750868,0.0000651042,0.0000434028
559013.7700242141,-0.0891113281,0.0083923340,9.7813415531,0.0005208333,-0.0000542535,0.0000217014
559013.7800242139,-0.0866699219,0.0015258789,9.7813415531,-0.0006184896,-0.0000000000,0.0000217014
559013.7900242140,-0.0885009766,0.0097656250,9.7819519046,0.0003797743,0.0000108507,0.0000325521
559013.8000242140,-0.0892639160,0.0016784668,9.7808837894,-0.0003906250,-0.0000000000,0.0000434028
559013.8100242140,-0.0883483887,0.0099182129,9.7819519046,0.0000542535,-0.0000000000,0.0000434028
559013.8200242140,-0.0885009766,0.0007629395,9.7814941409,0.0000217014,0.0000108507,0.0000325521
559013.8300242140,-0.0878906250,0.0070190430,9.7808837894,-0.0002929687,-0.0000000000,0.0000108507
559013.8400242140,-0.0891113281,0.0068664551,9.7808837894,0.0003689236,-0.0000000000,0.0000217014
559013.8500242140,-0.0894165039,0.0044250488,9.7816467288,-0.0005967882,-0.0000000000,0.0000434028
559013.8600242140,-0.0883483887,0.0070190430,9.7814941409,0.0004557292,0.0000108507,0.0000325521
559013.8700242140,-0.0881958008,0.0013732910,9.7817993167,-0.0005750868,0.0000108507,0.0000217014
559013.8800242140,-0.0891113281,0.0106811523,9.7808837894,0.0003797743,-0.0000325521,0.0000434028
559013.8900242141,-0.0889587402,0.0009155273,9.7819519046,-0.0003797743,0.0000325521,0.0000325521
559013.9000242139,-0.0892639160,0.0093078613,9.7814941409,0.0000868056,-0.0000000000,0.0000217014
559013.9100242140,-0.0878906250,0.0015258789,9.7813415531,-0.0000217014,-0.0000325521,0.0000108507
559013.9200242140,-0.0883483887,0.0082397461,9.7819519046,-0.0002495660,0.0000108507,0.0000325521
559013.9300242140,-0.0877380371,0.0047302246,9.7810363773,0.0002278646,-0.0000000000,0.0000434028
559013.9400242140,-0.0892639160,0.0047302246,9.7810363773,-0.0005099826,0.0000217014,0.0000217014
559013.9500242140,-0.0886535645,0.0071716309,9.7808837894,0.0004882812,-0.0000434028,0.0000325521
559013.9600242140,-0.0886535645,0.0025939941,9.7821044925,-0.0006293403,0.0000325521,0.0000217014
559013.9700242140,-0.0878906250,0.0103759766,9.7814941409,0.0004665799,-0.0000217014,0.0000108507
559013.9800242140,-0.0885009766,-0.0000000000,9.7813415531,-0.0004448785,-0.0000000000,0.0000325521
559013.9900242140,-0.0886535645,0.0105285645,9.7821044925,0.0000868056,-0.0000000000,0.0000217014
559014.0000242140,-0.0878906250,0.0021362305,9.7813415531,-0.0000108507,-0.0000000000,0.0000434028
559014.0100242140,-0.0880432129,0.0082397461,9.7817993167,-0.0003363715,0.0000217014,0.0000325521
559014.0200242141,-0.0881958008,0.0045776367,9.7817993167,0.0004448785,-0.0000000000,0.0000217014
559014.0300242139,-0.0897216797,0.0042724609,9.7813415531,-0.0006401910,0.0000108507,0.0000217014
559014.0400242140,-0.0889587402,0.0088500977,9.7814941409,0.0004882812,-0.0000217014,0.0000217014
559014.0500242140,-0.0872802734,0.0003051758,9.7816467288,-0.0005642361,-0.0000000000,0.0000325521
559014.0600242140,-0.0888061523,0.0103759766,9.7816467288,0.0002821181,-0.0000000000,0.0000217014
559014.0700242140,-0.0897216797,0.0013732910,9.7819519046,-0.0001953125,-0.0000000000,0.0000217014
559014.0800242140,-0.0892639160,0.0097656250,9.7817993167,-0.0001302083,-0.0000000000,0.0000217014
559014.0900242140,-0.0865173340,0.0033569336,9.7814941409,0.0002061632,-0.0000000000,0.0000217014
559014.1000242140,-0.0878906250,0.0065612793,9.7814941409,-0.0004665799,0.0000108507,0.0000325521
559014.1100242140,-0.0900268555,0.0073242188,9.7813415531,0.0004557292,-0.0000217014,0.0000325521
559014.1200242140,-0.0874328613,0.0018310547,9.7805786136,-0.0006401910,0.0000108507,0.0000434028
559014.1300242150,-0.0869750977,0.0090026855,9.7817993167,0.0004665799,-0.0000000000,0.0000325521
559014.1400242150,-0.0898742676,0.0012207031,9.7814941409,-0.0004991319,0.0000108507,0.0000434028
559014.1500242150,-0.0895690918,0.0096130371,9.7808837894,0.0001953125,-0.0000325521,0.0000217014
559014.1600242150,-0.0866699219,0.0019836426,9.7817993167,-0.0001193576,0.0000108507,0.0000217014
559014.1700242150,-0.0889587402,0.0091552734,9.7816467288,-0.0001844618,-0.0000000000,0.0000217014
559014.1800242150,-0.0881958008,0.0022888184,9.7810363773,0.0002278646,-0.0000000000,0.0000325521
559014.1900242150,-0.0888061523,0.0054931641,9.7813415531,-0.0005316840,-0.0000000000,0.0000434028
559014.2000242150,-0.0872802734,0.0071716309,9.7821044925,0.0004448785,-0.0000000000,0.0000217014
559014.2100242150,-0.0883483887,0.0024414063,9.7808837894,-0.0006293403,0.0000108507,0.0000217014
559014.2200242151,-0.0880432129,0.0091552734,9.7822570804,0.0004557292,-0.0000000000,0.0000217014
559014.2300242150,-0.0881958008,0.0009155273,9.7814941409,-0.0004557292,-0.0000000000,0.0000325521
559014.2400242150,-0.0885009766,0.0100708008,9.7813415531,0.0001736111,-0.0000325521,0.0000217014
559014.2500242150,-0.0878906250,0.0006103516,9.7811889652,-0.0001193576,0.0000108507,0.0000325521
559014.2600242150,-0.0886535645,0.0085449219,9.7817993167,-0.0002278646,0.0000108507,0.0000325521
559014.2700242150,-0.0886535645,0.0038146973,9.7813415531,0.0002604167,-0.0000108507,0.0000434028
559014.2800242150,-0.0878906250,0.0059509277,9.7816467288,-0.0005425347,0.0000217014,0.0000325521
559014.2900242150,-0.0885009766,0.0073242188,9.7811889652,0.0004991319,-0.0000000000,0.0000325521
559014.3000242150,-0.0885009766,0.0013732910,9.7817993167,-0.0006401910,-0.0000000000,0.0000325521
559014.3100242150,-0.0880432129,0.0102233887,9.7814941409,0.0004123264,-0.0000217014,0.0000325521
559014.3200242150,-0.0885009766,0.0012207031,9.7816467288,-0.0004014757,0.0000325521,0.0000217014
559014.3300242150,-0.0894165039,0.0100708008,9.7810363773,0.0000651042,-0.0000108507,0.0000217014
559014.3400242151,-0.0880432129,0.0022888184,9.7813415531,-0.0000217014,-0.0000000000,0.0000325521
559014.3500242149,-0.0881958008,0.0079345703,9.7811889652,-0.0002712674,0.0000108507,0.0000325521
559014.3600242150,-0.0885009766,0.0039672852,9.7817993167,0.0002929687,-0.0000000000,0.0000325521
559014.3700242150,-0.0885009766,0.0054931641,9.7819519046,-0.0005316840,-0.0000000000,0.0000108507
559014.3800242150,-0.0888061523,0.0077819824,9.7816467288,0.0004557292,-0.0000000000,0.0000325521
559014.3900242150,-0.0877380371,0.0016784668,9.7814941409,-0.0006293403,-0.0000000000,0.0000325521
559014.4000242150,-0.0877380371,0.0093078613,9.7810363773,0.0004123264,-0.0000000000,0.0000325521
559014.4100242150,-0.0898742676,0.0019836426,9.7805786136,-0.0004448785,0.0000108507,0.0000217014
559014.4200242150,-0.0883483887,0.0099182129,9.7811889652,0.0001736111,-0.0000000000,0.0000108507
559014.4300242150,-0.0874328613,-0.0000000000,9.7813415531,-0.0000976562,-0.0000000000,0.0000434028
559014.4400242150,-0.0892639160,0.0096130371,9.7821044925,-0.0001627604,0.0000108507,0.0000325521
559014.4500242150,-0.0909423828,0.0050354004,9.7810363773,0.0001844618,-0.0000000000,0.0000325521
559014.4600242150,-0.0880432129,0.0056457520,9.7810363773,-0.0004882812,-0.0000000000,0.0000325521
559014.4700242151,-0.0874328613,0.0050354004,9.7814941409,0.0004340278,0.0000108507,0.0002495660
559014.4800242150,-0.0898742676,0.0027465820,9.7814941409,-0.0006293403,0.0000325521,0.0009114583
559014.4900242150,-0.0910949707,0.0085449219,9.7817993167,0.0004665799,-0.0000217014,0.0025824653
559014.5000242150,-0.0898742676,-0.0003051758,9.7814941409,-0.0005533854,-0.0000000000,0.0042860243
559014.5100242150,-0.0885009766,0.0067138672,9.7814941409,0.0001844618,-0.0000000000,0.0056749132
559014.5200242150,-0.0898742676,0.0003051758,9.7814941409,-0.0002495660,-0.0000000000,0.0067925347
559014.5300242150,-0.0883483887,0.0091552734,9.7817993167,-0.0001627604,-0.0000000000,0.0076280382
559014.5400242150,-0.0888061523,0.0019836426,9.7811889652,0.0000542535,-0.0000000000,0.0083007812
559014.5500242150,-0.0895690918,0.0051879883,9.7808837894,-0.0005099826,-0.0000000000,0.0093424479
559014.5600242150,-0.0874328613,0.0050354004,9.7814941409,0.0003580729,-0.0000000000,0.0099500868
559014.5700242150,-0.0889587402,0.0018310547,9.7821044925,-0.0007161458,0.0000325521,0.0107638889
559014.5800242150,-0.0909423828,0.0090026855,9.7816467288,0.0003580729,-0.0000325521,0.0115993924
559014.5900242151,-0.0885009766,-0.0000000000,9.7816467288,-0.0006184896,0.0000108507,0.0123480903
559014.6000242149,-0.0894165039,0.0090026855,9.7816467288,0.0000868056,-0.0000108507,0.0135091146
559014.6100242150,-0.0894165039,0.0013732910,9.7813415531,-0.0002495660,0.0000108507,0.0144205729
559014.6200242150,-0.0907897949,0.0074768066,9.7814941409,-0.0002821181,-0.0000000000,0.0152126736
559014.6300242150,-0.0897216797,0.0030517578,9.7813415531,0.0000976562,-0.0000108507,0.0162760417
559014.6400242150,-0.0880432129,0.0045776367,9.7811889652,-0.0006076389,-0.0000000000,0.0170464410
559014.6500242150,-0.0885009766,0.0061035156,9.7811889652,0.0003255208,-0.0000000000,0.0178276910
559014.6600242150,-0.0900268555,0.0018310547,9.7817993167,-0.0008246528,-0.0000000000,0.0189019097
559014.6700242150,-0.0897216797,0.0083923340,9.7814941409,0.0002929687,-0.0000000000,0.0195638021
559014.6800242150,-0.0888061523,-0.0000000000,9.7814941409,-0.0006618924,0.0000108507,0.0205729167
559014.6900242150,-0.0886535645,0.0088500977,9.7816467288,0.0000759549,-0.0000108507,0.0215928819
559014.7000242150,-0.0891113281,0.0010681152,9.7816467288,-0.0003363715,0.0000217014,0.0221462674
559014.7100242150,-0.0904846191,0.0076293945,9.7821044925,-0.0003580729,-0.0000108507,0.0231987847
559014.7200242151,-0.0868225098,0.0036621094,9.7808837894,0.0000108507,-0.0000542535,0.0240776910
559014.7300242150,-0.0886535645,0.0044250488,9.7816467288,-0.0007703993,0.0000434028,0.0246853299
559014.7400242150,-0.0909423828,0.0064086914,9.7811889652,0.0003146701,-0.0000000000,0.0259223090
559014.7500242150,-0.0894165039,0.0015258789,9.7817993167,-0.0008572049,-0.0000000000,0.0266493056
559014.7600242150,-0.0868225098,0.0083923340,9.7814941409,0.0001844618,-0.0000000000,0.0275065104
559014.7700242150,-0.0872802734,0.0009155273,9.7827148441,-0.0005967882,0.0000434028,0.0287977431
559014.7800242150,-0.0915527344,0.0088500977,9.7804260257,-0.0001736111,-0.0000217014,0.0292426215
559014.7900242150,-0.0888061523,0.0004577637,9.7811889652,-0.0002712674,-0.0000000000,0.0299479167
559014.8000242150,-0.0888061523,0.0073242188,9.7817993167,-0.0005316840,0.0000108507,0.0310004340
559014.8100242150,-0.0877380371,0.0044250488,9.7813415531,0.0000542535,-0.0000000000,0.0316623264
559014.8200242150,-0.0914001465,0.0038146973,9.7807312015,-0.0008572049,0.0000217014,0.0326931424
559014.8300242150,-0.0888061523,0.0065612793,9.7822570804,0.0002821181,-0.0000108507,0.0337131076
559014.8400242151,-0.0875854492,0.0010681152,9.7816467288,-0.0008789062,0.0000108507,0.0342881944
559014.8500242149,-0.0900268555,0.0093078613,9.7822570804,0.0000434028,-0.0000000000,0.0355360243
559014.8600242150,-0.0897216797,0.0006103516,9.7816467288,-0.0006510417,0.0000217014,0.0363932292
559014.8700242150,-0.0892639160,0.0073242188,9.7810363773,-0.0002387153,-0.0000000000,0.0371310764
559014.8800242150,-0.0894165039,0.0022888184,9.7816467288,-0.0002495660,-0.0000108507,0.0381184896
559014.8900242150,-0.0888061523,0.0074768066,9.7811889652,-0.0007161458,0.0000217014,0.0386935764
559014.9000242150,-0.0895690918,0.0041198730,9.7808837894,0.0001085069,-0.0000108507,0.0396592882
559014.9100242150,-0.0901794434,0.0021362305,9.7813415531,-0.0009440104,0.0000217014,0.0407769097
559014.9200242150,-0.0885009766,0.0085449219,9.7811889652,0.0001627604,-0.0000000000,0.0413845486
559014.9300242150,-0.0881958008,0.0010681152,9.7813415531,-0.0009331597,0.0000108507,0.0423394097
559014.9400242150,-0.0903320313,0.0091552734,9.7819519046,-0.0000759549,-0.0000108507,0.0433485243
559014.9500242150,-0.0888061523,0.0004577637,9.7817993167,-0.0005316840,0.0000108507,0.0438585069
559014.9600242150,-0.0895690918,0.0079345703,9.7816467288,-0.0005208333,-0.0000000000,0.0449327257
559014.9700242151,-0.0889587402,0.0036621094,9.7813415531,-0.0000651042,-0.0000108507,0.0458875868
559014.9800242150,-0.0889587402,0.0039672852,9.7814941409,-0.0009765625,0.0000325521,0.0465169271
559014.9900242150,-0.0895690918,0.0065612793,9.7810363773,0.0001410590,-0.0000217014,0.0476562500
559015.0000242150,-0.0895690918,0.0004577637,9.7816467288,-0.0010308160,-0.0000000000,0.0483723958
559015.0100242150,-0.0886535645,0.0111389160,9.7811889652,0.0000000000,-0.0000000000,0.0490017361
559015.0200242150,-0.0888061523,0.0004577637,9.7817993167,-0.0007161458,0.0000108507,0.0502061632
559015.0300242150,-0.0898742676,0.0073242188,9.7811889652,-0.0004340278,0.0000217014,0.0509982639
559015.0400242150,-0.0894165039,0.0027465820,9.7813415531,-0.0003255208,-0.0000000000,0.0520290799
559015.0500242150,-0.0878906250,0.0068664551,9.7822570804,-0.0008463542,0.0000217014,0.0529947917
559015.0600242150,-0.0881958008,0.0048828125,9.7813415531,-0.0000325521,-0.0000000000,0.0533528646
559015.0700242150,-0.0909423828,0.0009155273,9.7814941409,-0.0010959201,0.0000108507,0.0543945312
559015.0800242150,-0.0903320313,0.0091552734,9.7819519046,0.0000976562,-0.0000217014,0.0555013021
559015.0900242151,-0.0885009766,0.0019836426,9.7807312015,-0.0009982639,0.0000217014,0.0561306424
559015.1000242149,-0.0885009766,0.0091552734,9.7816467288,-0.0002278646,0.0000108507,0.0571940104
559015.1100242150,-0.0888061523,-0.0000000000,9.7816467288,-0.0005967882,-0.0000000000,0.0580295139
559015.1200242150,-0.0895690918,0.0077819824,9.7822570804,-0.0007486979,-0.0000000000,0.0588433160
559015.1300242150,-0.0878906250,0.0047302246,9.7814941409,-0.0001519097,0.0000108507,0.0598524306
559015.1400242150,-0.0872802734,0.0041198730,9.7813415531,-0.0011284722,0.0000108507,0.0604166667
559015.1500242150,-0.0888061523,0.0065612793,9.7813415531,0.0000325521,0.0000108507,0.0612630208
559015.1600242150,-0.0898742676,-0.0000000000,9.7819519046,-0.0010525174,0.0000217014,0.0625000000
559015.1700242150,-0.0888061523,0.0106811523,9.7810363773,-0.0001844618,-0.0000108507,0.0631184896
559015.1800242150,-0.0898742676,0.0016784668,9.7813415531,-0.0008463542,0.0000217014,0.0640950521
559015.1900242150,-0.0892639160,0.0079345703,9.7816467288,-0.0005208333,-0.0000000000,0.0649305556
559015.2000242160,-0.0892639160,0.0013732910,9.7813415531,-0.0005533854,0.0000108507,0.0655598958
559015.2100242160,-0.0889587402,0.0070190430,9.7819519046,-0.0007812500,-0.0000000000,0.0667209201
559015.2200242160,-0.0886535645,0.0050354004,9.7814941409,-0.0003363715,-0.0000108507,0.0676540799
559015.2300242160,-0.0880432129,0.0045776367,9.7817993167,-0.0009765625,0.0000325521,0.0682834201
559015.2400242160,-0.0888061523,0.0056457520,9.7810363773,-0.0001193576,-0.0000000000,0.0693142361
559015.2500242160,-0.0892639160,0.0032043457,9.7811889652,-0.0012044271,0.0000217014,0.0701063368
559015.2600242160,-0.0889587402,0.0085449219,9.7819519046,-0.0001085069,-0.0000000000,0.0709526910
559015.2700242160,-0.0880432129,-0.0000000000,9.7811889652,-0.0010633681,0.0000217014,0.0720703125
559015.2800242160,-0.0894165039,0.0093078613,9.7814941409,-0.0004123264,-0.0000000000,0.0726779514
559015.2900242161,-0.0898742676,0.0009155273,9.7817993167,-0.0006727431,0.0000217014,0.0736436632
559015.3000242159,-0.0883483887,0.0085449219,9.7817993167,-0.0008355035,-0.0000108507,0.0746310764
559015.3100242160,-0.0885009766,0.0041198730,9.7814941409,-0.0003363715,0.0000325521,0.0751953125
559015.3200242160,-0.0886535645,0.0038146973,9.7819519046,-0.0011610243,0.0000217014,0.0762261285
559015.3300242160,-0.0903320313,0.0077819824,9.7814941409,-0.0001519097,-0.0000325521,0.0771484375
559015.3400242160,-0.0895690918,0.0018310547,9.7816467288,-0.0012586806,0.0000108507,0.0779079861
559015.3500242160,-0.0885009766,0.0090026855,9.7814941409,-0.0001953125,0.0000108507,0.0790690104
559015.3600242160,-0.0874328613,0.0010681152,9.7813415531,-0.0010633681,0.0000108507,0.0797417535
559015.3700242160,-0.0892639160,0.0091552734,9.7819519046,-0.0004991319,0.0000108507,0.0802625868
559015.3800242160,-0.0904846191,0.0006103516,9.7810363773,-0.0007378472,0.0000108507,0.0814887153
559015.3900242160,-0.0877380371,0.0080871582,9.7814941409,-0.0009223090,-0.0000000000,0.0822265625
559015.4000242160,-0.0880432129,0.0041198730,9.7808837894,-0.0004231771,-0.0000217014,0.0830620660
559015.4100242160,-0.0886535645,0.0042724609,9.7814941409,-0.0012152778,0.0000434028,0.0842122396
559015.4200242159,-0.0898742676,0.0067138672,9.7813415531,-0.0001844618,-0.0000217014,0.0848524306
559015.4300242160,-0.0897216797,0.0013732910,9.7817993167,-0.0013020833,0.0000108507,0.0858506944
559015.4400242160,-0.0878906250,0.0099182129,9.7814941409,-0.0002604167,0.0000217014,0.0867513021
559015.4500242160,-0.0885009766,0.0019836426,9.7816467288,-0.0011501736,0.0000325521,0.0874565972
559015.4600242160,-0.0915527344,0.0082397461,9.7821044925,-0.0006727431,-0.0000108507,0.0885850694
559015.4700242160,-0.0900268555,0.0021362305,9.7807312015,-0.0007052951,-0.0000000000,0.0894422743
559015.4800242160,-0.0871276855,0.0077819824,9.7822570804,-0.0010633681,0.0000434028,0.0902018229
559015.4900242160,-0.0885009766,0.0047302246,9.7814941409,-0.0003797743,-0.0000000000,0.0911892361
559015.5000242160,-0.0889587402,0.0033569336,9.7808837894,-0.0013129340,0.0000217014,0.0917751736
559015.5100242160,-0.0889587402,0.0077819824,9.7821044925,-0.0002495660,0.0000108507,0.0926757812
559015.5200242160,-0.0895690918,0.0016784668,9.7814941409,-0.0013563368,-0.0000000000,0.0938259549
559015.5300242160,-0.0872802734,0.0099182129,9.7817993167,-0.0004014757,0.0000108507,0.0944661458
559015.5400242161,-0.0895690918,0.0007629395,9.7816467288,-0.0011501736,0.0000325521,0.0953776042
559015.5500242159,-0.0888061523,0.0086975098,9.7819519046,-0.0007486979,-0.0000108507,0.0964626736
559015.5600242160,-0.0888061523,0.0019836426,9.7807312015,-0.0006510417,-0.0000000000,0.0970594618
559015.5700242160,-0.0883483887,0.0062561035,9.7808837894,-0.0012695312,0.0000325521,0.0980468750
559015.5800242160,-0.0878906250,0.0054931641,9.7813415531,-0.0003146701,-0.0000000000,0.0989366319
559015.5900242160,-0.0889587402,0.0019836426,9.7805786136,-0.0014756944,0.0000325521,0.0995768229
559015.6000242160,-0.0894165039,0.0097656250,9.7817993167,-0.0003580729,0.0000108507,0.1007269965
559015.6100242160,-0.0872802734,0.0021362305,9.7816467288,-0.0012695312,-0.0000000000,0.1014756944
559015.6200242160,-0.0881958008,0.0083923340,9.7813415531,-0.0006835937,0.0000217014,0.1021050347
559015.6300242160,-0.0895690918,0.0009155273,9.7819519046,-0.0009006076,-0.0000000000,0.1034179687
559015.6400242160,-0.0898742676,0.0080871582,9.7814941409,-0.0011067708,-0.0000000000,0.1040690104
559015.6500242160,-0.0894165039,0.0039672852,9.7817993167,-0.0005533854,0.0000108507,0.1050998264
559015.6600242160,-0.0886535645,0.0047302246,9.7819519046,-0.0013997396,0.0000217014,0.1061197917
559015.6700242159,-0.0892639160,0.0070190430,9.7813415531,-0.0004557292,0.0000108507,0.1065646701
559015.6800242160,-0.0892639160,0.0024414063,9.7816467288,-0.0014756944,-0.0000000000,0.1076605903
559015.6900242160,-0.0891113281,0.0085449219,9.7810363773,-0.0004014757,0.0000108507,0.1085720486
559015.7000242160,-0.0878906250,0.0021362305,9.7807312015,-0.0013454861,0.0000325521,0.1092230903
559015.7100242160,-0.0883483887,0.0093078613,9.7814941409,-0.0007595486,-0.0000000000,0.1101236979
559015.7200242160,-0.0875854492,0.0009155273,9.7813415531,-0.0009874132,0.0000325521,0.1110026042
559015.7300242160,-0.0885009766,0.0068664551,9.7817993167,-0.0011284722,0.0000325521,0.1117621528
559015.7400242160,-0.0892639160,0.0045776367,9.7811889652,-0.0006293403,-0.0000000000,0.1130642361
559015.7500242160,-0.0880432129,0.0056457520,9.7811889652,-0.0014973958,0.0000108507,0.1137152778
559015.7600242160,-0.0889587402,0.0065612793,9.7819519046,-0.0004231771,-0.0000000000,0.1144531250
559015.7700242160,-0.0885009766,0.0009155273,9.7811889652,-0.0015190972,0.0000325521,0.1155815972
559015.7800242160,-0.0880432129,0.0100708008,9.7813415531,-0.0005099826,-0.0000000000,0.1163085937
559015.7900242161,-0.0880432129,0.0010681152,9.7811889652,-0.0013780382,0.0000325521,0.1172960069
559015.8000242159,-0.0883483887,0.0086975098,9.7816467288,-0.0009006076,-0.0000000000,0.1181206597
559015.8100242160,-0.0881958008,0.0021362305,9.7814941409,-0.0009223090,0.0000108507,0.1188476562
559015.8200242160,-0.0894165039,0.0077819824,9.7813415531,-0.0013129340,0.0000108507,0.1199110243
559015.8300242160,-0.0883483887,0.0054931641,9.7816467288,-0.0006401910,-0.0000000000,0.1208333333
559015.8400242160,-0.0878906250,0.0045776367,9.7814941409,-0.0015733507,0.0000217014,0.1215386285
559015.8500242160,-0.0895690918,0.0071716309,9.7810363773,-0.0004882812,0.0000217014,0.1226453993
559015.8600242160,-0.0877380371,0.0015258789,9.7811889652,-0.0016059028,0.0000325521,0.1233723958
559015.8700242160,-0.0874328613,0.0102233887,9.7816467288,-0.0006076389,-0.0000000000,0.1240993924
559015.8800242160,-0.0880432129,0.0021362305,9.7808837894,-0.0013997396,0.0000325521,0.1251519097
559015.8900242160,-0.0880432129,0.0079345703,9.7814941409,-0.0009874132,0.0000217014,0.1258463542
559015.9000242160,-0.0897216797,0.0019836426,9.7814941409,-0.0009657118,-0.0000108507,0.1268446181
559015.9100242160,-0.0888061523,0.0088500977,9.7816467288,-0.0013780382,0.0000108507,0.1278103299
559015.9200242159,-0.0872802734,0.0061035156,9.7810363773,-0.0007052951,0.0000217014,0.1281901042
559015.9300242160,-0.0895690918,0.0028991699,9.7808837894,-0.0016927083,0.0000108507,0.1292643229
559015.9400242160,-0.0886535645,0.0064086914,9.7819519046,-0.0004882812,0.0000217014,0.1303493924
559015.9500242160,-0.0883483887,0.0018310547,9.7816467288,-0.0016384549,0.0000325521,0.1311957465
559015.9600242160,-0.0888061523,0.0119018555,9.7811889652,-0.0007595486,-0.0000000000,0.1323025174
559015.9700242160,-0.0888061523,0.0010681152,9.7817993167,-0.0013454861,0.0000325521,0.1330186632
559015.9800242160,-0.0885009766,0.0074768066,9.7813415531,-0.0011935764,0.0000217014,0.1335177951
559015.9900242160,-0.0888061523,0.0039672852,9.7814941409,-0.0009223090,-0.0000000000,0.1348198785
559016.0000242160,-0.0878906250,0.0067138672,9.7819519046,-0.0016276042,0.0000325521,0.1355034722
559016.0100242160,-0.0877380371,0.0067138672,9.7811889652,-0.0005967882,0.0000108507,0.1364691840
559016.0200242160,-0.0895690918,0.0003051758,9.7813415531,-0.0017903646,0.0000434028,0.1373914930
559016.0300242160,-0.0886535645,0.0106811523,9.7816467288,-0.0006076389,-0.0000000000,0.1380750868
559016.0400242161,-0.0869750977,0.0010681152,9.7813415531,-0.0015733507,0.0000325521,0.1390950521
559016.0500242159,-0.0883483887,0.0090026855,9.7814941409,-0.0010742187,0.0000108507,0.1399305555
559016.0600242160,-0.0885009766,0.0025939941,9.7817993167,-0.0011176215,0.0000217014,0.1405490451
559016.0700242160,-0.0900268555,0.0070190430,9.7816467288,-0.0015733507,0.0000325521,0.1416341146
559016.0800242160,-0.0878906250,0.0065612793,9.7816467288,-0.0007161458,-0.0000108507,0.1425781250
559016.0900242160,-0.0880432129,0.0025939941,9.7817993167,-0.0017903646,0.0000542535,0.1434027778
559016.1000242160,-0.0881958008,0.0083923340,9.7821044925,-0.0006401910,0.0000325521,0.1444769965
559016.1100242160,-0.0881958008,0.0027465820,9.7810363773,-0.0017144097,0.0000542535,0.1451388889
559016.1200242160,-0.0883483887,0.0096130371,9.7816467288,-0.0009006076,-0.0000000000,0.1459743924
559016.1300242160,-0.0875854492,-0.0001525879,9.7816467288,-0.0014648437,0.0000325521,0.1470486111
559016.1400242160,-0.0875854492,0.0091552734,9.7813415531,-0.0012369792,0.0000325521,0.1476019965
559016.1500242160,-0.0892639160,0.0033569336,9.7813415531,-0.0011284722,-0.0000000000,0.1485351562
559016.1600242160,-0.0885009766,0.0077819824,9.7811889652,-0.0015625000,0.0000217014,0.1496202257
559016.1700242159,-0.0868225098,0.0051879883,9.7811889652,-0.0008246528,0.0000325521,0.1503689236
559016.1800242160,-0.0878906250,0.0030517578,9.7814941409,-0.0018012153,0.0000325521,0.1514322917
559016.1900242160,-0.0881958008,0.0091552734,9.7816467288,-0.0007812500,-0.0000000000,0.1522677951
559016.2000242160,-0.0881958008,0.0025939941,9.7816467288,-0.0018337674,0.0000325521,0.1529188368
559016.2100242160,-0.0869750977,0.0079345703,9.7814941409,-0.0008572049,0.0000108507,0.1539822049
559016.2200242160,-0.0880432129,0.0019836426,9.7811889652,-0.0016059028,0.0000108507,0.1546115451
559016.2300242160,-0.0885009766,0.0100708008,9.7817993167,-0.0012044271,0.0000325521,0.1552083333
559016.2400242160,-0.0886535645,0.0013732910,9.7811889652,-0.0012803819,-0.0000000000,0.1565755208
559016.2500242160,-0.0881958008,0.0064086914,9.7811889652,-0.0016167535,0.0000217014,0.1573350694
559016.2600242160,-0.0881958008,0.0054931641,9.7817993167,-0.0009331597,0.0000434028,0.1582682292
559016.2700242170,-0.0875854492,0.0061035156,9.7816467288,-0.0018554687,0.0000434028,0.1593532986
559016.2800242170,-0.0866699219,0.0082397461,9.7822570804,-0.0008246528,0.0000108507,0.1598849826
559016.2900242170,-0.0869750977,0.0009155273,9.7819519046,-0.0018554687,0.0000542535,0.1608072917
559016.3000242170,-0.0885009766,0.0100708008,9.7813415531,-0.0009114583,0.0000108507,0.1617947049
559016.3100242170,-0.0885009766,0.0024414063,9.7814941409,-0.0017361111,0.0000217014,0.1624565972
559016.3200242170,-0.0875854492,0.0102233887,9.7813415531,-0.0013237847,0.0000108507,0.1635959201
559016.3300242170,-0.0871276855,0.0012207031,9.7813415531,-0.0012695312,0.0000108507,0.1643229167
559016.3400242170,-0.0875854492,0.0068664551,9.7814941409,-0.0017578125,0.0000434028,0.1650716146
559016.3500242170,-0.0883483887,0.0067138672,9.7817993167,-0.0008246528,0.0000325521,0.1662977430
559016.3600242171,-0.0874328613,0.0035095215,9.7816467288,-0.0020290799,-0.0000000000,0.1668945312
559016.3700242169,-0.0871276855,0.0093078613,9.7816467288,-0.0008572049,0.0000217014,0.1677083333
559016.3800242170,-0.0880432129,0.0004577637,9.7814941409,-0.0018229167,0.0000434028,0.1688585069
559016.3900242170,-0.0878906250,0.0106811523,9.7811889652,-0.0012695312,-0.0000000000,0.1694552951
559016.4000242170,-0.0881958008,0.0024414063,9.7817993167,-0.0014539931,0.0000325521,0.1704752604
559016.4100242170,-0.0874328613,0.0080871582,9.7816467288,-0.0016818576,0.0000542535,0.1712673611
559016.4200242170,-0.0874328613,0.0047302246,9.7814941409,-0.0010308160,0.0000217014,0.1720594618
559016.4300242170,-0.0885009766,0.0050354004,9.7819519046,-0.0019965278,0.0000108507,0.1731662326
559016.4400242170,-0.0871276855,0.0085449219,9.7817993167,-0.0008897569,0.0000108507,0.1740451389
559016.4500242170,-0.0871276855,0.0015258789,9.7819519046,-0.0020182292,0.0000759549,0.1747612847
559016.4600242170,-0.0878906250,0.0105285645,9.7810363773,-0.0010525174,-0.0000000000,0.1756184896
559016.4700242170,-0.0869750977,0.0025939941,9.7811889652,-0.0017686632,0.0000108507,0.1757269965
559016.4800242170,-0.0866699219,0.0100708008,9.7810363773,-0.0014105903,0.0000325521,0.1753363715
559016.4900242171,-0.0868225098,0.0038146973,9.7819519046,-0.0013346354,0.0000325521,0.1747721354
559016.5000242169,-0.0869750977,0.0083923340,9.7814941409,-0.0018229167,0.0000108507,0.1744140625
559016.5100242170,-0.0868225098,0.0065612793,9.7816467288,-0.0009874132,0.0000325521,0.1742078993
559016.5200242170,-0.0868225098,0.0051879883,9.7813415531,-0.0020724826,0.0000759549,0.1741536458
559016.5300242170,-0.0863647461,0.0093078613,9.7814941409,-0.0009548611,-0.0000000000,0.1741644965
559016.5400242170,-0.0866699219,0.0016784668,9.7819519046,-0.0019422743,0.0000759549,0.1742296007
559016.5500242170,-0.0872802734,0.0106811523,9.7816467288,-0.0010525174,-0.0000000000,0.1742947049
559016.5600242170,-0.0871276855,0.0045776367,9.7811889652,-0.0018012153,0.0000325521,0.1743489583
559016.5700242170,-0.0869750977,0.0109863281,9.7813415531,-0.0012803819,0.0000217014,0.1743381076
559016.5800242170,-0.0863647461,0.0012207031,9.7810363773,-0.0015625000,0.0000325521,0.1743815104
559016.5900242170,-0.0868225098,0.0091552734,9.7817993167,-0.0015950521,0.0000108507,0.1744032118
559016.6000242170,-0.0865173340,0.0056457520,9.7814941409,-0.0012152778,0.0000325521,0.1744140625
559016.6100242171,-0.0854492188,0.0073242188,9.7813415531,-0.0018771701,0.0000325521,0.1744032118
559016.6200242169,-0.0863647461,0.0080871582,9.7811889652,-0.0010199653,0.0000108507,0.1743706597
559016.6300242170,-0.0878906250,0.0042724609,9.7819519046,-0.0019314236,0.0000542535,0.1743815104
559016.6400242170,-0.0868225098,0.0088500977,9.7814941409,-0.0009874132,0.0000217014,0.1743923611
559016.6500242170,-0.0859069824,0.0044250488,9.7811889652,-0.0019856771,0.0000542535,0.1743489583
559016.6600242170,-0.0865173340,0.0099182129,9.7816467288,-0.0010742187,0.0000217014,0.1744032118
559016.6700242170,-0.0863647461,0.0018310547,9.7811889652,-0.0018337674,0.0000542535,0.1743923611
559016.6800242170,-0.0880432129,0.0105285645,9.7819519046,-0.0012695312,0.0000217014,0.1744140625
559016.6900242170,-0.0872802734,0.0038146973,9.7813415531,-0.0014756944,0.0000108507,0.1744032118
559016.7000242170,-0.0852966309,0.0097656250,9.7816467288,-0.0016493056,0.0000325521,0.1744140625
559016.7100242170,-0.0868225098,0.0053405762,9.7813415531,-0.0011393229,0.0000108507,0.1744140625
559016.7200242170,-0.0874328613,0.0070190430,9.7810363773,-0.0019856771,0.0000217014,0.1743923611
559016.7300242170,-0.0869750977,0.0083923340,9.7814941409,-0.0009331597,0.0000108507,0.1744357639
559016.7400242171,-0.0863647461,0.0038146973,9.7813415531,-0.0020182292,0.0000325521,0.1745008680
559016.7500242169,-0.0865173340,0.0102233887,9.7813415531,-0.0009548611,0.0000108507,0.1745334201
559016.7600242170,-0.0880432129,0.0022888184,9.7813415531,-0.0018880208,0.0000542535,0.1745334201
559016.7700242170,-0.0868225098,0.0112915039,9.7811889652,-0.0012044271,-0.0000000000,0.1745117187
559016.7800242170,-0.0859069824,0.0030517578,9.7813415531,-0.0015516493,0.0000325521,0.1745117187
559016.7900242170,-0.0863647461,0.0097656250,9.7819519046,-0.0016493056,0.0000651042,0.1744574653
559016.8000242170,-0.0869750977,0.0054931641,9.7811889652,-0.0011284722,0.0000108507,0.1744791667
559016.8100242170,-0.0875854492,0.0067138672,9.7810363773,-0.0020182292,0.0000542535,0.1744466146
559016.8200242170,-0.0865173340,0.0086975098,9.7811889652,-0.0008789062,0.0000217014,0.1745442708
559016.8300242170,-0.0863647461,0.0036621094,9.7810363773,-0.0020073785,0.0000217014,0.1745225694
559016.8400242170,-0.0865173340,0.0114440918,9.7819519046,-0.0010525174,0.0000217014,0.1745551215
559016.8500242170,-0.0869750977,0.0013732910,9.7814941409,-0.0017903646,0.0000542535,0.1745008680
559016.8600242171,-0.0872802734,0.0103759766,9.7817993167,-0.0013997396,-0.0000000000,0.1745117187
559016.8700242169,-0.0866699219,0.0044250488,9.7813415531,-0.0013671875,0.0000325521,0.1745551215
559016.8800242170,-0.0866699219,0.0083923340,9.7813415531,-0.0018120660,0.0000325521,0.1745551215
559016.8900242170,-0.0868225098,0.0073242188,9.7814941409,-0.0010199653,-0.0000000000,0.1745442708
559016.9000242170,-0.0880432129,0.0045776367,9.7817993167,-0.0020073785,0.0000325521,0.1745117187
559016.9100242170,-0.0865173340,0.0094604492,9.7811889652,-0.0009548611,0.0000108507,0.1745442708
559016.9200242170,-0.0860595703,0.0039672852,9.7817993167,-0.0019748264,0.0000542535,0.1745117187
559016.9300242170,-0.0872802734,0.0108337402,9.7822570804,-0.0010742187,0.0000217014,0.1745117187
559016.9400242170,-0.0866699219,0.0025939941,9.7816467288,-0.0017469618,0.0000325521,0.1745442708
559016.9500242170,-0.0862121582,0.0111389160,9.7816467288,-0.0013997396,0.0000108507,0.1745117187
559016.9600242170,-0.0866699219,0.0039672852,9.7808837894,-0.0013129340,0.0000325521,0.1745551215
559016.9700242170,-0.0877380371,0.0080871582,9.7816467288,-0.0017903646,0.0000542535,0.1744791667
559016.9800242170,-0.0860595703,0.0068664551,9.7816467288,-0.0010308160,0.0000108507,0.1745008680
559016.9900242171,-0.0856018066,0.0054931641,9.7811889652,-0.0020724826,0.0000542535,0.1745117187
559017.0000242169,-0.0866699219,0.0100708008,9.7816467288,-0.0009331597,0.0000108507,0.1745876736
559017.0100242170,-0.0874328613,0.0025939941,9.7816467288,-0.0019639757,0.0000651042,0.1749023437
559017.0200242170,-0.0868225098,0.0112915039,9.7817993167,-0.0011393229,-0.0000000000,0.1746419271
559017.0300242170,-0.0857543945,0.0030517578,9.7811889652,-0.0016384549,0.0000217014,0.1745985243
559017.0400242170,-0.0859069824,0.0102233887,9.7814941409,-0.0015082465,0.0000542535,0.1745876736
559017.0500242170,-0.0869750977,0.0042724609,9.7810363773,-0.0012695312,0.0000108507,0.1745442708
559017.0600242170,-0.0871276855,0.0076293945,9.7808837894,-0.0018771701,0.0000542535,0.1745225694
559017.0700242170,-0.0857543945,0.0077819824,9.7819519046,-0.0009657118,0.0000325521,0.1744791667
559017.0800242170,-0.0865173340,0.0053405762,9.7811889652,-0.0020616319,0.0000542535,0.1745117187
559017.0900242170,-0.0874328613,0.0099182129,9.7813415531,-0.0009006076,0.0000108507,0.1745225694
559017.1000242170,-0.0878906250,0.0010681152,9.7810363773,-0.0019097222,0.0000542535,0.1745334201
559017.1100242171,-0.0880432129,0.0122070313,9.7814941409,-0.0012152778,0.0000108507,0.1745334201
559017.1200242169,-0.0865173340,0.0045776367,9.7810363773,-0.0015407986,0.0000217014,0.1745551215
559017.1300242170,-0.0863647461,0.0094604492,9.7816467288,-0.0016276042,0.0000542535,0.1745768229
559017.1400242170,-0.0869750977,0.0039672852,9.7810363773,-0.0011501736,0.0000108507,0.1746310764
559017.1500242170,-0.0874328613,0.0070190430,9.7811889652,-0.0019097222,0.0000542535,0.1745768229
559017.1600242170,-0.0860595703,0.0088500977,9.7814941409,-0.0009331597,0.0000217014,0.1745876736
559017.1700242170,-0.0857543945,0.0044250488,9.7814941409,-0.0020616319,0.0000542535,0.1745659722
559017.1800242170,-0.0875854492,0.0094604492,9.7814941409,-0.0009765625,0.0000325521,0.1745768229
559017.1900242170,-0.0869750977,0.0025939941,9.7814941409,-0.0018988715,0.0000217014,0.1745225694
559017.2000242170,-0.0869750977,0.0115966797,9.7811889652,-0.0012152778,0.0000217014,0.1745442708
559017.2100242170,-0.0859069824,0.0032043457,9.7819519046,-0.0015407986,0.0000325521,0.1745442708
559017.2200242170,-0.0872802734,0.0096130371,9.7816467288,-0.0016167535,0.0000325521,0.1745117187
559017.2300242170,-0.0866699219,0.0056457520,9.7810363773,-0.0011501736,0.0000325521,0.1745442708
559017.2400242171,-0.0872802734,0.0064086914,9.7813415531,-0.0019205729,0.0000651042,0.1745985243
559017.2500242169,-0.0868225098,0.0096130371,9.7813415531,-0.0009548611,0.0000108507,0.1745768229
559017.2600242170,-0.0852966309,0.0044250488,9.7817993167,-0.0020616319,0.0000542535,0.1745334201
559017.2700242170,-0.0871276855,0.0093078613,9.7813415531,-0.0010091146,0.0000217014,0.1745334201
559017.2800242170,-0.0859069824,0.0033569336,9.7817993167,-0.0018229167,0.0000542535,0.1745442708
559017.2900242170,-0.0863647461,0.0112915039,9.7817993167,-0.0011935764,0.0000434028,0.1745551215
559017.3000242170,-0.0869750977,0.0033569336,9.7811889652,-0.0015950521,0.0000108507,0.1745442708
559017.3100242170,-0.0863647461,0.0105285645,9.7819519046,-0.0015299479,0.0000325521,0.1745768229
559017.3200242170,-0.0865173340,0.0045776367,9.7813415531,-0.0012478299,0.0000325521,0.1745985243
559017.3300242170,-0.0871276855,0.0074768066,9.7817993167,-0.0019205729,0.0000651042,0.1746093750
559017.3400242170,-0.0860595703,0.0082397461,9.7816467288,-0.0009223090,0.0000108507,0.1745876736
559017.3500242180,-0.0875854492,0.0036621094,9.7817993167,-0.0020616319,0.0000542535,0.1745551215
559017.3600242180,-0.0854492188,0.0109863281,9.7817993167,-0.0009440104,0.0000217014,0.1745876736
559017.3700242180,-0.0856018066,0.0022888184,9.7813415531,-0.0018880208,0.0000325521,0.1745659722
559017.3800242180,-0.0877380371,0.0103759766,9.7817993167,-0.0012803819,0.0000217014,0.1745659722
559017.3900242180,-0.0865173340,0.0028991699,9.7811889652,-0.0015299479,0.0000217014,0.1745225694
559017.4000242180,-0.0868225098,0.0106811523,9.7816467288,-0.0016276042,0.0000651042,0.1745551215
559017.4100242180,-0.0866699219,0.0051879883,9.7814941409,-0.0011935764,0.0000325521,0.1745768229
559017.4200242180,-0.0860595703,0.0059509277,9.7819519046,-0.0018771701,0.0000325521,0.1745876736
559017.4300242180,-0.0866699219,0.0080871582,9.7814941409,-0.0009765625,0.0000108507,0.1746419271
559017.4400242181,-0.0866699219,0.0053405762,9.7807312015,-0.0020182292,0.0000651042,0.1745985243
559017.4500242179,-0.0862121582,0.0103759766,9.7814941409,-0.0009874132,0.0000108507,0.1746419271
559017.4600242180,-0.0866699219,0.0024414063,9.7811889652,-0.0019314236,0.0000651042,0.1745985243
559017.4700242180,-0.0860595703,0.0105285645,9.7816467288,-0.0011393229,0.0000217014,0.1745334201
559017.4800242180,-0.0863647461,0.0035095215,9.7813415531,-0.0016601562,0.0000325521,0.1745551215
559017.4900242180,-0.0860595703,0.0105285645,9.7808837894,-0.0013997396,0.0000108507,0.1745876736
559017.5000242180,-0.0856018066,0.0039672852,9.7814941409,-0.0013671875,0.0000542535,0.1745768229
559017.5100242180,-0.0877380371,0.0086975098,9.7819519046,-0.0017469618,0.0000542535,0.1745768229
559017.5200242180,-0.0865173340,0.0061035156,9.7816467288,-0.0011067708,0.0000217014,0.1745659722
559017.5300242180,-0.0871276855,0.0059509277,9.7814941409,-0.0020507812,0.0000651042,0.1745551215
559017.5400242180,-0.0865173340,0.0088500977,9.7813415531,-0.0008897569,0.0000325521,0.1745768229
559017.5500242180,-0.0866699219,0.0024414063,9.7813415531,-0.0019856771,0.0000542535,0.1745551215
559017.5600242181,-0.0862121582,0.0125122070,9.7821044925,-0.0010308160,0.0000325521,0.1745659722
559017.5700242179,-0.0874328613,0.0022888184,9.7810363773,-0.0017578125,0.0000542535,0.1745985243
559017.5800242180,-0.0869750977,0.0106811523,9.7822570804,-0.0014431424,0.0000217014,0.1745659722
559017.5900242180,-0.0856018066,0.0042724609,9.7813415531,-0.0013020833,0.0000434028,0.1745985243
559017.6000242180,-0.0863647461,0.0077819824,9.7816467288,-0.0018988715,0.0000651042,0.1745985243
559017.6100242180,-0.0875854492,0.0083923340,9.7811889652,-0.0009223090,0.0000108507,0.1745876736
559017.6200242180,-0.0871276855,0.0039672852,9.7816467288,-0.0020833333,0.0000651042,0.1745876736
559017.6300242180,-0.0863647461,0.0105285645,9.7813415531,-0.0009223090,0.0000217014,0.1745551215
559017.6400242180,-0.0852966309,0.0035095215,9.7811889652,-0.0018880208,0.0000651042,0.1746202257
559017.6500242180,-0.0875854492,0.0111389160,9.7811889652,-0.0012803819,0.0000325521,0.1745985243
559017.6600242180,-0.0865173340,0.0024414063,9.7814941409,-0.0015407986,0.0000217014,0.1745876736
559017.6700242180,-0.0863647461,0.0097656250,9.7814941409,-0.0015842014,0.0000542535,0.1745985243
559017.6800242180,-0.0856018066,0.0067138672,9.7817993167,-0.0011393229,0.0000434028,0.1746202257
559017.6900242181,-0.0871276855,0.0076293945,9.7817993167,-0.0019314236,0.0000651042,0.1745985243
559017.7000242179,-0.0878906250,0.0073242188,9.7816467288,-0.0009657118,0.0000217014,0.1746093750
559017.7100242180,-0.0865173340,0.0038146973,9.7813415531,-0.0020182292,0.0000542535,0.1745659722
559017.7200242180,-0.0859069824,0.0114440918,9.7816467288,-0.0009657118,0.0000108507,0.1746310764
559017.7300242180,-0.0862121582,0.0036621094,9.7808837894,-0.0019097222,0.0000651042,0.1746636285
559017.7400242180,-0.0874328613,0.0105285645,9.7817993167,-0.0012152778,0.0000325521,0.1746527778
559017.7500242180,-0.0863647461,0.0022888184,9.7807312015,-0.0015625000,0.0000217014,0.1746527778
559017.7600242180,-0.0869750977,0.0105285645,9.7814941409,-0.0015407986,0.0000325521,0.1746419271
559017.7700242180,-0.0848388672,0.0053405762,9.7811889652,-0.0012152778,0.0000434028,0.1746419271
559017.7800242180,-0.0862121582,0.0080871582,9.7813415531,-0.0018988715,0.0000651042,0.1746093750
559017.7900242180,-0.0877380371,0.0068664551,9.7814941409,-0.0009765625,0.0000325521,0.1745659722
559017.8000242180,-0.0866699219,0.0047302246,9.7813415531,-0.0020616319,0.0000217014,0.1745985243
559017.8100242181,-0.0859069824,0.0122070313,9.7821044925,-0.0009331597,0.0000325521,0.1746310764
559017.8200242179,-0.0859069824,0.0030517578,9.7813415531,-0.0019422743,0.0000651042,0.1746527778
559017.8300242180,-0.0856018066,0.0102233887,9.7810363773,-0.0010959201,0.0000217014,0.1746419271
559017.8400242180,-0.0869750977,0.0025939941,9.7814941409,-0.0016710069,0.0000542535,0.1746093750
559017.8500242180,-0.0866699219,0.0122070313,9.7817993167,-0.0015082465,-0.0000000000,0.1745876736
559017.8600242180,-0.0856018066,0.0041198730,9.7814941409,-0.0012369792,0.0000434028,0.1745985243
559017.8700242180,-0.0875854492,0.0065612793,9.7816467288,-0.0019205729,0.0000542535,0.1745659722
559017.8800242180,-0.0866699219,0.0085449219,9.7811889652,-0.0009006076,0.0000325521,0.1746310764
559017.8900242180,-0.0866699219,0.0051879883,9.7810363773,-0.0020724826,0.0000325521,0.1746093750
559017.9000242180,-0.0856018066,0.0106811523,9.7811889652,-0.0009548611,0.0000217014,0.1746636285
559017.9100242180,-0.0860595703,0.0009155273,9.7790527347,-0.0018880208,0.0000651042,0.1746202257
559017.9200242180,-0.0875854492,0.0122070313,9.7798156741,-0.0012478299,0.0000325521,0.1745985243
559017.9300242180,-0.0883483887,0.0045776367,9.7843933109,-0.0015625000,0.0000217014,0.1745985243
559017.9400242181,-0.0854492188,0.0102233887,9.7880554202,-0.0017035590,0.0000217014,0.1745985243
559017.9500242179,-0.0852966309,0.0048828125,9.7848510745,-0.0010959201,0.0000434028,0.1745551215
559017.9600242180,-0.0866699219,0.0070190430,9.7766113284,-0.0018988715,0.0000868056,0.1746093750
559017.9700242180,-0.0883483887,0.0085449219,9.7737121585,-0.0008897569,0.0000108507,0.1746310764
559017.9800242180,-0.0849914551,0.0028991699,9.7778320316,-0.0020182292,0.0000651042,0.1746527778
559017.9900242180,-0.0851440430,0.0106811523,9.7808837894,-0.0010199653,0.0000217014,0.1746527778
559018.0000242180,-0.0872802734,0.0033569336,9.7859191898,-0.0018446181,0.0000651042,0.1746744792
559018.0100242180,-0.0877380371,0.0137329102,9.7880554202,-0.0013780382,0.0000325521,0.1749457465
559018.0200242180,-0.0863647461,0.0041198730,9.7846984866,-0.0014105903,0.0000217014,0.1747178819
559018.0300242180,-0.0848388672,0.0071716309,9.7793579105,-0.0017361111,0.0000651042,0.1748589410
559018.0400242180,-0.0848388672,0.0056457520,9.7734069827,-0.0009657118,0.0000868056,0.1747938368
559018.0500242180,-0.0875854492,0.0064086914,9.7781372074,-0.0020290799,0.0000651042,0.1746202257
559018.0600242181,-0.0871276855,0.0109863281,9.7822570804,-0.0009657118,-0.0000000000,0.1745876736
559018.0700242179,-0.0851440430,0.0025939941,9.7845458988,-0.0020073785,0.0000542535,0.1745225694
559018.0800242180,-0.0860595703,0.0117492676,9.7853088382,-0.0011284722,0.0000325521,0.1745442708
559018.0900242180,-0.0871276855,0.0041198730,9.7848510745,-0.0016493056,0.0000325521,0.1745876736
559018.1000242180,-0.0868225098,0.0117492676,9.7805786136,-0.0014214410,0.0000542535,0.1745768229
559018.1100242180,-0.0848388672,0.0025939941,9.7785949710,-0.0013563368,0.0000542535,0.1745985243
559018.1200242180,-0.0851440430,0.0073242188,9.7790527347,-0.0018012153,0.0000651042,0.1745876736
559018.1300242180,-0.0883483887,0.0071716309,9.7804260257,-0.0009657118,0.0000434028,0.1746310764
559018.1400242180,-0.0878906250,0.0062561035,9.7817993167,-0.0020507812,0.0000651042,0.1746636285
559018.1500242180,-0.0857543945,0.0112915039,9.7831726077,-0.0009440104,-0.0000108507,0.1746636285
559018.1600242180,-0.0846862793,0.0019836426,9.7830200199,-0.0019639757,0.0000759549,0.1746527778
559018.1700242180,-0.0885009766,0.0119018555,9.7821044925,-0.0011610243,0.0000759549,0.1746527778
559018.1800242180,-0.0883483887,0.0032043457,9.7813415531,-0.0015625000,0.0000217014,0.1746744792
559018.1900242181,-0.0842285156,0.0099182129,9.7805786136,-0.0016384549,0.0000542535,0.1745985243
559018.2000242179,-0.0845336914,0.0061035156,9.7811889652,-0.0011501736,0.0000434028,0.1745659722
559018.2100242180,-0.0880432129,0.0067138672,9.7799682620,-0.0019314236,0.0000651042,0.1745551215
559018.2200242180,-0.0886535645,0.0079345703,9.7814941409,-0.0009223090,0.0000217014,0.1745876736
559018.2300242180,-0.0868225098,0.0056457520,9.7822570804,-0.0020507812,0.0000759549,0.1745876736
559018.2400242180,-0.0846862793,0.0112915039,9.7822570804,-0.0009874132,0.0000108507,0.1745659722
559018.2500242180,-0.0856018066,0.0013732910,9.7817993167,-0.0018554687,0.0000759549,0.1745768229
559018.2600242180,-0.0880432129,0.0117492676,9.7819519046,-0.0012912326,0.0000434028,0.1745768229
559018.2700242180,-0.0866699219,0.0036621094,9.7811889652,-0.0014431424,0.0000108507,0.1745985243
559018.2800242180,-0.0852966309,0.0096130371,9.7807312015,-0.0016818576,0.0000651042,0.1745876736
559018.2900242180,-0.0849914551,0.0064086914,9.7810363773,-0.0010742187,0.0000434028,0.1745659722
559018.3000242180,-0.0877380371,0.0064086914,9.7810363773,-0.0019748264,0.0000651042,0.1746419271
559018.3100242181,-0.0883483887,0.0091552734,9.7811889652,-0.0009223090,-0.0000000000,0.1746527778
559018.3200242179,-0.0851440430,0.0036621094,9.7819519046,-0.0020290799,0.0000651042,0.1746527778
559018.3300242180,-0.0840759277,0.0109863281,9.7824096683,-0.0010416667,0.0000217014,0.1746527778
559018.3400242180,-0.0863647461,0.0041198730,9.7813415531,-0.0017903646,0.0000759549,0.1746093750
559018.3500242180,-0.0878906250,0.0103759766,9.7813415531,-0.0013237847,0.0000325521,0.1746202257
559018.3600242180,-0.0863647461,0.0038146973,9.7811889652,-0.0013346354,0.0000325521,0.1746202257
559018.3700242180,-0.0852966309,0.0102233887,9.7811889652,-0.0017686632,0.0000868056,0.1745442708
559018.3800242180,-0.0863647461,0.0065612793,9.7810363773,-0.0010633681,0.0000217014,0.1746093750
559018.3900242180,-0.0872802734,0.0051879883,9.7816467288,-0.0019856771,0.0000759549,0.1746093750
559018.4000242180,-0.0860595703,0.0091552734,9.7813415531,-0.0009548611,0.0000325521,0.1746310764
559018.4100242180,-0.0846862793,0.0047302246,9.7813415531,-0.0019422743,0.0000542535,0.1745985243
559018.4200242190,-0.0862121582,0.0112915039,9.7816467288,-0.0010199653,0.0000434028,0.1746093750
559018.4300242190,-0.0866699219,0.0025939941,9.7817993167,-0.0018229167,0.0000542535,0.1745768229
559018.4400242190,-0.0863647461,0.0105285645,9.7816467288,-0.0012478299,0.0000217014,0.1745768229
559018.4500242190,-0.0848388672,0.0036621094,9.7817993167,-0.0014865451,0.0000325521,0.1745659722
559018.4600242190,-0.0854492188,0.0106811523,9.7822570804,-0.0017035590,0.0000759549,0.1745876736
559018.4700242190,-0.0868225098,0.0057983398,9.7813415531,-0.0010742187,0.0000217014,0.1746093750
559018.4800242190,-0.0874328613,0.0061035156,9.7814941409,-0.0019856771,0.0000651042,0.1745876736
559018.4900242190,-0.0845336914,0.0097656250,9.7816467288,-0.0008897569,0.0000217014,0.1746310764
559018.5000242190,-0.0859069824,0.0038146973,9.7814941409,-0.0020073785,0.0000868056,0.1746202257
559018.5100242191,-0.0862121582,0.0111389160,9.7824096683,-0.0010416667,0.0000325521,0.1746093750
559018.5200242189,-0.0871276855,0.0025939941,9.7811889652,-0.0018337674,0.0000542535,0.1745985243
559018.5300242190,-0.0869750977,0.0114440918,9.7817993167,-0.0013563368,0.0000325521,0.1745551215
559018.5400242190,-0.0856018066,0.0038146973,9.7808837894,-0.0013780382,0.0000651042,0.1746202257
559018.5500242190,-0.0865173340,0.0088500977,9.7813415531,-0.0017686632,0.0000651042,0.1746310764
559018.5600242190,-0.0872802734,0.0073242188,9.7816467288,-0.0010199653,0.0000108507,0.1746419271
559018.5700242190,-0.0863647461,0.0056457520,9.7813415531,-0.0020073785,0.0000542535,0.1746093750
559018.5800242190,-0.0857543945,0.0102233887,9.7810363773,-0.0009223090,0.0000217014,0.1746744792
559018.5900242190,-0.0849914551,0.0042724609,9.7813415531,-0.0019965278,0.0000868056,0.1746419271
559018.6000242190,-0.0860595703,0.0109863281,9.7814941409,-0.0010633681,0.0000325521,0.1746093750
559018.6100242190,-0.0860595703,0.0028991699,9.7814941409,-0.0017578125,0.0000542535,0.1745442708
559018.6200242190,-0.0854492188,0.0114440918,9.7821044925,-0.0013129340,0.0000651042,0.1745659722
559018.6300242190,-0.0860595703,0.0042724609,9.7813415531,-0.0013997396,0.0000325521,0.1745768229
559018.6400242191,-0.0859069824,0.0086975098,9.7817993167,-0.0017578125,0.0000759549,0.1745876736
559018.6500242190,-0.0871276855,0.0064086914,9.7814941409,-0.0010525174,0.0000325521,0.1745876736
559018.6600242190,-0.0852966309,0.0057983398,9.7814941409,-0.0020182292,0.0000759549,0.1745985243
559018.6700242190,-0.0849914551,0.0106811523,9.7819519046,-0.0008897569,0.0000325521,0.1746202257
559018.6800242190,-0.0869750977,0.0027465820,9.7811889652,-0.0020073785,0.0000651042,0.1746093750
559018.6900242190,-0.0872802734,0.0115966797,9.7813415531,-0.0010308160,0.0000108507,0.1745659722
559018.7000242190,-0.0849914551,0.0036621094,9.7810363773,-0.0017035590,0.0000542535,0.1746310764
559018.7100242190,-0.0848388672,0.0109863281,9.7816467288,-0.0014539931,0.0000542535,0.1746527778
559018.7200242190,-0.0863647461,0.0041198730,9.7811889652,-0.0013563368,0.0000434028,0.1746636285
559018.7300242190,-0.0877380371,0.0074768066,9.7821044925,-0.0018120660,0.0000759549,0.1746527778
559018.7400242190,-0.0869750977,0.0071716309,9.7811889652,-0.0010091146,0.0000217014,0.1746527778
559018.7500242190,-0.0851440430,0.0070190430,9.7817993167,-0.0019639757,0.0000651042,0.1746202257
559018.7600242191,-0.0852966309,0.0097656250,9.7814941409,-0.0009765625,0.0000651042,0.1745768229
559018.7700242189,-0.0871276855,0.0038146973,9.7813415531,-0.0019965278,0.0000325521,0.1745225694
559018.7800242190,-0.0866699219,0.0109863281,9.7814941409,-0.0010091146,0.0000325521,0.1745876736
559018.7900242190,-0.0848388672,0.0036621094,9.7810363773,-0.0017903646,0.0000759549,0.1746310764
559018.8000242190,-0.0857543945,0.0120544434,9.7819519046,-0.0013671875,0.0000325521,0.1746527778
559018.8100242190,-0.0865173340,0.0030517578,9.7814941409,-0.0014105903,0.0000434028,0.1746853299
559018.8200242190,-0.0868225098,0.0094604492,9.7816467288,-0.0016818576,0.0000651042,0.1746744792
559018.8300242190,-0.0854492188,0.0067138672,9.7813415531,-0.0010959201,-0.0000000000,0.1746636285
559018.8400242190,-0.0848388672,0.0071716309,9.7810363773,-0.0020073785,0.0000759549,0.1746202257
559018.8500242190,-0.0863647461,0.0090026855,9.7819519046,-0.0008789062,0.0000651042,0.1746310764
559018.8600242190,-0.0862121582,0.0032043457,9.7811889652,-0.0020616319,0.0000651042,0.1745659722
559018.8700242190,-0.0856018066,0.0126647949,9.7817993167,-0.0010091146,0.0000325521,0.1745876736
559018.8800242190,-0.0852966309,0.0027465820,9.7814941409,-0.0017469618,0.0000542535,0.1746419271
559018.8900242191,-0.0856018066,0.0103759766,9.7817993167,-0.0014756944,0.0000542535,0.1746310764
559018.9000242190,-0.0863647461,0.0048828125,9.7814941409,-0.0011935764,0.0000434028,0.1746202257
559018.9100242190,-0.0866699219,0.0070190430,9.7811889652,-0.0019205729,0.0000542535,0.1745876736
559018.9200242190,-0.0848388672,0.0080871582,9.7810363773,-0.0009440104,0.0000217014,0.1745876736
559018.9300242190,-0.0852966309,0.0050354004,9.7811889652,-0.0020507812,0.0000976562,0.1745659722
559018.9400242190,-0.0874328613,0.0099182129,9.7813415531,-0.0009440104,0.0000434028,0.1745659722
559018.9500242190,-0.0857543945,0.0035095215,9.7816467288,-0.0019097222,0.0000542535,0.1745985243
559018.9600242190,-0.0852966309,0.0119018555,9.7817993167,-0.0010959201,0.0000217014,0.1746636285
559018.9700242190,-0.0843811035,0.0028991699,9.7813415531,-0.0016601562,0.0000651042,0.1746636285
559018.9800242190,-0.0868225098,0.0103759766,9.7821044925,-0.0014756944,0.0000651042,0.1746744792
559018.9900242190,-0.0872802734,0.0053405762,9.7810363773,-0.0013129340,0.0000217014,0.1746853299
559019.0000242190,-0.0859069824,0.0076293945,9.7819519046,-0.0018337674,0.0000759549,0.1746527778
559019.0100242191,-0.0849914551,0.0073242188,9.7813415531,-0.0010091146,0.0000434028,0.1749348958
559019.0200242189,-0.0854492188,0.0057983398,9.7813415531,-0.0019856771,0.0000759549,0.1746202257
559019.0300242190,-0.0866699219,0.0100708008,9.7811889652,-0.0009006076,0.0000325521,0.1745876736
559019.0400242190,-0.0859069824,0.0041198730,9.7813415531,-0.0019856771,0.0000759549,0.1746202257
559019.0500242190,-0.0851440430,0.0112915039,9.7813415531,-0.0010633681,0.0000325521,0.1746310764
559019.0600242190,-0.0845336914,0.0027465820,9.7817993167,-0.0017469618,0.0000759549,0.1746093750
559019.0700242190,-0.0877380371,0.0125122070,9.7816467288,-0.0013671875,0.0000325521,0.1746310764
559019.0800242190,-0.0860595703,0.0041198730,9.7798156741,-0.0013997396,0.0000651042,0.1746202257
559019.0900242190,-0.0851440430,0.0090026855,9.7817993167,-0.0017578125,0.0000651042,0.1746419271
559019.1000242190,-0.0849914551,0.0065612793,9.7833251956,-0.0010416667,0.0000325521,0.1746310764
559019.1100242190,-0.0860595703,0.0068664551,9.7819519046,-0.0020073785,0.0000868056,0.1745985243
559019.1200242190,-0.0877380371,0.0109863281,9.7822570804,-0.0009223090,0.0000108507,0.1746310764
559019.1300242190,-0.0854492188,0.0025939941,9.7813415531,-0.0020290799,0.0000651042,0.1746636285
559019.1400242191,-0.0836181641,0.0112915039,9.7813415531,-0.0009874132,0.0000651042,0.1746527778
559019.1500242190,-0.0868225098,0.0047302246,9.7801208499,-0.0017578125,0.0000542535,0.1746419271
559019.1600242190,-0.0875854492,0.0109863281,9.7813415531,-0.0014431424,0.0000542535,0.1746202257
559019.1700242190,-0.0852966309,0.0035095215,9.7821044925,-0.0012803819,0.0000434028,0.1745876736
559019.1800242190,-0.0840759277,0.0088500977,9.7821044925,-0.0018446181,0.0000651042,0.1745442708
559019.1900242190,-0.0859069824,0.0094604492,9.7821044925,-0.0009657118,0.0000217014,0.1745551215
559019.2000242190,-0.0874328613,0.0054931641,9.7810363773,-0.0020833333,0.0000868056,0.1745225694
559019.2100242190,-0.0857543945,0.0096130371,9.7814941409,-0.0008789062,0.0000217014,0.1745876736
559019.2200242190,-0.0849914551,0.0025939941,9.7805786136,-0.0018988715,0.0000651042,0.1745985243
559019.2300242190,-0.0852966309,0.0134277344,9.7813415531,-0.0011827257,0.0000434028,0.1746202257
559019.2400242190,-0.0868225098,0.0032043457,9.7810363773,-0.0015842014,0.0000325521,0.1746419271
559019.2500242190,-0.0859069824,0.0090026855,9.7817993167,-0.0015842014,0.0000325521,0.1746527778
559019.2600242191,-0.0842285156,0.0056457520,9.7813415531,-0.0011827257,0.0000651042,0.1746636285
559019.2700242189,-0.0857543945,0.0097656250,9.7819519046,-0.0019097222,0.0000542535,0.1746744792
559019.2800242190,-0.0857543945,0.0088500977,9.7816467288,-0.0009548611,0.0000434028,0.1746310764
559019.2900242190,-0.0857543945,0.0030517578,9.7814941409,-0.0020182292,0.0000868056,0.1746202257
559019.3000242190,-0.0852966309,0.0102233887,9.7814941409,-0.0009006076,0.0000108507,0.1746419271
559019.3100242190,-0.0851440430,0.0044250488,9.7811889652,-0.0018988715,0.0000759549,0.1745876736
559019.3200242190,-0.0859069824,0.0125122070,9.7816467288,-0.0012261285,0.0000651042,0.1745551215
559019.3300242190,-0.0860595703,0.0021362305,9.7816467288,-0.0016276042,0.0000651042,0.1745117187
559019.3400242190,-0.0859069824,0.0097656250,9.7816467288,-0.0014756944,0.0000542535,0.1745442708
559019.3500242190,-0.0845336914,0.0051879883,9.7811889652,-0.0012261285,0.0000759549,0.1745768229
559019.3600242190,-0.0854492188,0.0093078613,9.7814941409,-0.0018771701,0.0000651042,0.1745117187
559019.3700242190,-0.0865173340,0.0080871582,9.7813415531,-0.0009657118,0.0000325521,0.1746093750
559019.3800242190,-0.0868225098,0.0035095215,9.7808837894,-0.0020616319,0.0000651042,0.1746419271
559019.3900242191,-0.0848388672,0.0114440918,9.7814941409,-0.0009006076,0.0000325521,0.1746636285
559019.4000242190,-0.0836181641,0.0036621094,9.7807312015,-0.0018988715,0.0000759549,0.1747178819
559019.4100242190,-0.0863647461,0.0120544434,9.7819519046,-0.0012261285,0.0000434028,0.1746636285
559019.4200242190,-0.0866699219,0.0028991699,9.7813415531,-0.0014973958,0.0000651042,0.1746527778
559019.4300242190,-0.0865173340,0.0108337402,9.7813415531,-0.0015733507,0.0000542535,0.1746527778
559019.4400242190,-0.0843811035,0.0067138672,9.7811889652,-0.0011610243,0.0000325521,0.1746202257
559019.4500242190,-0.0848388672,0.0076293945,9.7817993167,-0.0019422743,0.0000868056,0.1746419271
559019.4600242190,-0.0871276855,0.0080871582,9.7817993167,-0.0009548611,0.0000325521,0.1746202257
559019.4700242190,-0.0863647461,0.0045776367,9.7811889652,-0.0020182292,0.0000542535,0.1746527778
559019.4800242190,-0.0846862793,0.0112915039,9.7814941409,-0.0009440104,0.0000651042,0.1746310764
559019.4900242190,-0.0831604004,0.0038146973,9.7808837894,-0.0019097222,0.0000759549,0.1746202257
559019.5000242200,-0.0874328613,0.0111389160,9.7817993167,-0.0011067708,0.0000217014,0.1746419271
559019.5100242200,-0.0866699219,0.0030517578,9.7821044925,-0.0016818576,0.0000542535,0.1746310764
559019.5200242200,-0.0842285156,0.0112915039,9.7821044925,-0.0014865451,0.0000325521,0.1745768229
559019.5300242200,-0.0837707520,0.0057983398,9.7814941409,-0.0013020833,0.0000759549,0.1746310764
559019.5400242200,-0.0869750977,0.0083923340,9.7808837894,-0.0018229167,0.0000868056,0.1746093750
559019.5500242200,-0.0863647461,0.0073242188,9.7817993167,-0.0009548611,0.0000325521,0.1746310764
559019.5600242200,-0.0849914551,0.0065612793,9.7810363773,-0.0020290799,0.0000542535,0.1746202257
559019.5700242200,-0.0836181641,0.0102233887,9.7817993167,-0.0009006076,0.0000325521,0.1746310764
559019.5800242200,-0.0848388672,0.0022888184,9.7814941409,-0.0019748264,0.0000868056,0.1746202257
559019.5900242199,-0.0874328613,0.0115966797,9.7814941409,-0.0011067708,0.0000325521,0.1745768229
559019.6000242200,-0.0860595703,0.0035095215,9.7817993167,-0.0017144097,0.0000651042,0.1745659722
559019.6100242200,-0.0843811035,0.0111389160,9.7821044925,-0.0014431424,0.0000542535,0.1745985243
559019.6200242200,-0.0842285156,0.0039672852,9.7813415531,-0.0012912326,0.0000434028,0.1746202257
559019.6300242200,-0.0868225098,0.0082397461,9.7810363773,-0.0018012153,0.0000759549,0.1745876736
559019.6400242200,-0.0857543945,0.0076293945,9.7814941409,-0.0010199653,0.0000217014,0.1746310764
559019.6500242200,-0.0848388672,0.0062561035,9.7813415531,-0.0019965278,0.0000759549,0.1746202257
559019.6600242200,-0.0848388672,0.0094604492,9.7813415531,-0.0009223090,0.0000651042,0.1746527778
559019.6700242200,-0.0859069824,0.0036621094,9.7811889652,-0.0019639757,0.0000868056,0.1746744792
559019.6800242200,-0.0860595703,0.0123596191,9.7821044925,-0.0010416667,0.0000651042,0.1746202257
559019.6900242200,-0.0851440430,0.0032043457,9.7811889652,-0.0017144097,0.0000868056,0.1746744792
559019.7000242200,-0.0857543945,0.0106811523,9.7817993167,-0.0014105903,0.0000651042,0.1746310764
559019.7100242201,-0.0856018066,0.0045776367,9.7816467288,-0.0012912326,0.0000325521,0.1746310764
559019.7200242199,-0.0859069824,0.0086975098,9.7819519046,-0.0018554687,0.0000868056,0.1745985243
559019.7300242200,-0.0856018066,0.0074768066,9.7808837894,-0.0009548611,0.0000434028,0.1745551215
559019.7400242200,-0.0848388672,0.0044250488,9.7814941409,-0.0020290799,0.0000868056,0.1745768229
559019.7500242200,-0.0856018066,0.0111389160,9.7814941409,-0.0009006076,0.0000868056,0.1746093750
559019.7600242200,-0.0857543945,0.0038146973,9.7814941409,-0.0018988715,0.0000759549,0.1745334201
559019.7700242200,-0.0849914551,0.0117492676,9.7822570804,-0.0011284722,0.0000108507,0.1745551215
559019.7800242200,-0.0846862793,0.0027465820,9.7813415531,-0.0016818576,0.0000651042,0.1745442708
559019.7900242200,-0.0862121582,0.0109863281,9.7817993167,-0.0014756944,0.0000651042,0.1745985243
559019.8000242200,-0.0856018066,0.0045776367,9.7810363773,-0.0012803819,0.0000325521,0.1745985243
559019.8100242200,-0.0854492188,0.0082397461,9.7816467288,-0.0018012153,0.0000759549,0.1746093750
559019.8200242200,-0.0845336914,0.0074768066,9.7814941409,-0.0010308160,0.0000434028,0.1746744792
559019.8300242200,-0.0849914551,0.0065612793,9.7810363773,-0.0019965278,0.0000325521,0.1746527778
559019.8400242199,-0.0862121582,0.0102233887,9.7814941409,-0.0008789062,0.0000759549,0.1746310764
559019.8500242200,-0.0854492188,0.0036621094,9.7813415531,-0.0019856771,0.0000759549,0.1746419271
559019.8600242200,-0.0857543945,0.0106811523,9.7816467288,-0.0010525174,0.0000434028,0.1746527778
559019.8700242200,-0.0846862793,0.0038146973,9.7816467288,-0.0017144097,0.0000651042,0.1746419271
559019.8800242200,-0.0857543945,0.0112915039,9.7822570804,-0.0014105903,0.0000759549,0.1746310764
559019.8900242200,-0.0857543945,0.0036621094,9.7813415531,-0.0013020833,0.0000108507,0.1746310764
559019.9000242200,-0.0856018066,0.0085449219,9.7819519046,-0.0017578125,0.0000759549,0.1746093750
559019.9100242200,-0.0846862793,0.0085449219,9.7816467288,-0.0010742187,0.0000325521,0.1746093750
559019.9200242200,-0.0842285156,0.0064086914,9.7811889652,-0.0019748264,0.0000759549,0.1745551215
559019.9300242200,-0.0854492188,0.0082397461,9.7811889652,-0.0009440104,0.0000434028,0.1745876736
559019.9400242200,-0.0859069824,0.0028991699,9.7810363773,-0.0020073785,0.0000651042,0.1745985243
559019.9500242200,-0.0857543945,0.0126647949,9.7819519046,-0.0009657118,0.0000325521,0.1746310764
559019.9600242201,-0.0840759277,0.0028991699,9.7819519046,-0.0018120660,0.0000868056,0.1746310764
559019.9700242199,-0.0857543945,0.0105285645,9.7816467288,-0.0013020833,0.0000651042,0.1746744792
559019.9800242200,-0.0848388672,0.0032043457,9.7807312015,-0.0013780382,0.0000651042,0.1746419271
559019.9900242200,-0.0860595703,0.0106811523,9.7816467288,-0.0017361111,0.0000651042,0.1746093750
559020.0000242200,-0.0845336914,0.0070190430,9.7816467288,-0.0010959201,0.0000434028,0.1745551215
559020.0100242200,-0.0845336914,0.0061035156,9.7811889652,-0.0019314236,0.0000868056,0.1748480903
559020.0200242200,-0.0862121582,0.0085449219,9.7811889652,-0.0009223090,0.0000325521,0.1745442708
559020.0300242200,-0.0854492188,0.0053405762,9.7810363773,-0.0019965278,0.0000759549,0.1745551215
559020.0400242200,-0.0851440430,0.0119018555,9.7817993167,-0.0009874132,0.0000217014,0.1745768229
559020.0500242200,-0.0848388672,0.0024414063,9.7814941409,-0.0018337674,0.0000759549,0.1745876736
559020.0600242200,-0.0852966309,0.0115966797,9.7821044925,-0.0012912326,0.0000434028,0.1746202257
559020.0700242200,-0.0851440430,0.0035095215,9.7810363773,-0.0014539931,0.0000651042,0.1746744792
559020.0800242200,-0.0852966309,0.0105285645,9.7814941409,-0.0017035590,0.0000759549,0.1746419271
559020.0900242199,-0.0839233398,0.0070190430,9.7816467288,-0.0010199653,0.0000325521,0.1746744792
559020.1000242200,-0.0849914551,0.0059509277,9.7816467288,-0.0020182292,0.0000868056,0.1746419271
559020.1100242200,-0.0860595703,0.0096130371,9.7816467288,-0.0008680556,0.0000325521,0.1746636285
559020.1200242200,-0.0849914551,0.0028991699,9.7811889652,-0.0019965278,0.0000759549,0.1746202257
559020.1300242200,-0.0852966309,0.0126647949,9.7819519046,-0.0010959201,0.0000651042,0.1746093750
559020.1400242200,-0.0846862793,0.0032043457,9.7814941409,-0.0016276042,0.0000759549,0.1745876736
559020.1500242200,-0.0851440430,0.0114440918,9.7814941409,-0.0015082465,0.0000651042,0.1745876736
559020.1600242200,-0.0863647461,0.0039672852,9.7810363773,-0.0012044271,0.0000759549,0.1745985243
559020.1700242200,-0.0851440430,0.0074768066,9.7817993167,-0.0018880208,0.0000651042,0.1745659722
559020.1800242200,-0.0849914551,0.0088500977,9.7816467288,-0.0009331597,0.0000434028,0.1745442708
559020.1900242200,-0.0846862793,0.0045776367,9.7813415531,-0.0020507812,0.0000868056,0.1746093750
559020.2000242200,-0.0854492188,0.0106811523,9.7816467288,-0.0009440104,0.0000325521,0.1746310764
559020.2100242201,-0.0851440430,0.0032043457,9.7811889652,-0.0018880208,0.0000868056,0.1746636285
559020.2200242199,-0.0849914551,0.0117492676,9.7813415531,-0.0011393229,0.0000434028,0.1746636285
559020.2300242200,-0.0837707520,0.0032043457,9.7814941409,-0.0016601562,0.0000651042,0.1746527778
559020.2400242200,-0.0854492188,0.0109863281,9.7819519046,-0.0014756944,0.0000651042,0.1747070312
559020.2500242200,-0.0856018066,0.0048828125,9.7811889652,-0.0012695312,0.0000434028,0.1746744792
559020.2600242200,-0.0843811035,0.0083923340,9.7816467288,-0.0018229167,0.0000976562,0.1746419271
559020.2700242200,-0.0851440430,0.0082397461,9.7810363773,-0.0010308160,0.0000325521,0.1746310764
559020.2800242200,-0.0840759277,0.0045776367,9.7814941409,-0.0019314236,0.0000976562,0.1746202257
559020.2900242200,-0.0862121582,0.0100708008,9.7813415531,-0.0008897569,0.0000651042,0.1745876736
559020.3000242200,-0.0854492188,0.0050354004,9.7814941409,-0.0019856771,0.0000759549,0.1745768229
559020.3100242200,-0.0840759277,0.0115966797,9.7819519046,-0.0010525174,0.0000325521,0.1745659722
559020.3200242200,-0.0846862793,0.0021362305,9.7811889652,-0.0017903646,0.0001085069,0.1745768229
559020.3300242200,-0.0862121582,0.0114440918,9.7819519046,-0.0012803819,0.0000325521,0.1745659722
559020.3400242199,-0.0854492188,0.0051879883,9.7813415531,-0.0014648437,0.0000759549,0.1745876736
559020.3500242200,-0.0848388672,0.0106811523,9.7821044925,-0.0016384549,0.0000759549,0.1746310764
559020.3600242200,-0.0834655762,0.0048828125,9.7811889652,-0.0011067708,0.0000434028,0.1746419271
559020.3700242200,-0.0849914551,0.0068664551,9.7811889652,-0.0019097222,0.0000759549,0.1746636285
559020.3800242200,-0.0856018066,0.0102233887,9.7813415531,-0.0008789062,0.0000651042,0.1747287326
559020.3900242200,-0.0859069824,0.0045776367,9.7813415531,-0.0020724826,0.0000651042,0.1746961805
559020.4000242200,-0.0845336914,0.0115966797,9.7821044925,-0.0010091146,0.0000759549,0.1746744792
559020.4100242200,-0.0842285156,0.0022888184,9.7834777835,-0.0017144097,0.0000759549,0.1746636285
559020.4200242200,-0.0852966309,0.0115966797,9.7825622562,-0.0014105903,0.0000542535,0.1746419271
559020.4300242200,-0.0852966309,0.0061035156,9.7760009769,-0.0012369792,0.0000759549,0.1746636285
559020.4400242200,-0.0845336914,0.0068664551,9.7789001468,-0.0018771701,0.0000759549,0.1745985243
559020.4500242200,-0.0849914551,0.0082397461,9.7825622562,-0.0009331597,0.0000325521,0.1746093750
559020.4600242201,-0.0848388672,0.0054931641,9.7817993167,-0.0020724826,0.0000976562,0.1745659722
559020.4700242199,-0.0846862793,0.0109863281,9.7840881351,-0.0009223090,0.0000651042,0.1745876736
559020.4800242200,-0.0859069824,0.0041198730,9.7819519046,-0.0018880208,0.0000651042,0.1745985243
559020.4900242200,-0.0846862793,0.0109863281,9.7824096683,-0.0012152778,0.0000434028,0.1746419271
559020.5000242200,-0.0843811035,0.0039672852,9.7805786136,-0.0015082465,0.0000651042,0.1745876736
559020.5100242200,-0.0845336914,0.0100708008,9.7808837894,-0.0015516493,0.0000759549,0.1746310764
559020.5200242200,-0.0860595703,0.0056457520,9.7795104984,-0.0012261285,0.0000434028,0.1746853299
559020.5300242200,-0.0851440430,0.0077819824,9.7817993167,-0.0018229167,0.0000759549,0.1746419271
559020.5400242200,-0.0840759277,0.0076293945,9.7819519046,-0.0010416667,0.0000434028,0.1746202257
559020.5500242200,-0.0848388672,0.0059509277,9.7825622562,-0.0019205729,0.0000868056,0.1745876736
559020.5600242200,-0.0862121582,0.0099182129,9.7819519046,-0.0009440104,0.0000434028,0.1745876736
559020.5700242210,-0.0854492188,0.0033569336,9.7819519046,-0.0019639757,0.0000542535,0.1745551215
559020.5800242210,-0.0852966309,0.0114440918,9.7816467288,-0.0010525174,0.0000434028,0.1744900174
559020.5900242210,-0.0836181641,0.0028991699,9.7816467288,-0.0017361111,0.0000651042,0.1745551215
559020.6000242210,-0.0860595703,0.0119018555,9.7814941409,-0.0013780382,0.0000868056,0.1746527778
559020.6100242210,-0.0851440430,0.0032043457,9.7817993167,-0.0013237847,0.0000651042,0.1746419271
559020.6200242210,-0.0859069824,0.0088500977,9.7808837894,-0.0017903646,0.0000759549,0.1746419271
559020.6300242210,-0.0843811035,0.0080871582,9.7814941409,-0.0009548611,0.0000434028,0.1745876736
559020.6400242210,-0.0849914551,0.0057983398,9.7814941409,-0.0020616319,0.0000759549,0.1745985243
559020.6500242210,-0.0849914551,0.0105285645,9.7816467288,-0.0008789062,0.0000325521,0.1746527778
559020.6600242211,-0.0848388672,0.0032043457,9.7822570804,-0.0019314236,0.0000868056,0.1746093750
559020.6700242209,-0.0845336914,0.0119018555,9.7814941409,-0.0011284722,0.0000434028,0.1746202257
559020.6800242210,-0.0848388672,0.0024414063,9.7805786136,-0.0016601562,0.0000542535,0.1745985243
559020.6900242210,-0.0862121582,0.0111389160,9.7819519046,-0.0013671875,0.0000868056,0.1746202257
559020.7000242210,-0.0851440430,0.0038146973,9.7807312015,-0.0013671875,0.0000434028,0.1746419271
559020.7100242210,-0.0842285156,0.0099182129,9.7816467288,-0.0017252604,0.0000868056,0.1746310764
559020.7200242210,-0.0839233398,0.0070190430,9.7817993167,-0.0010525174,0.0000434028,0.1746093750
559020.7300242210,-0.0843811035,0.0057983398,9.7816467288,-0.0019965278,0.0000976562,0.1746419271
559020.7400242210,-0.0845336914,0.0106811523,9.7824096683,-0.0008463542,0.0000434028,0.1746093750
559020.7500242210,-0.0856018066,0.0039672852,9.7814941409,-0.0019748264,0.0000868056,0.1745985243
559020.7600242210,-0.0842285156,0.0126647949,9.7814941409,-0.0010308160,0.0000434028,0.1745768229
559020.7700242210,-0.0846862793,0.0027465820,9.7813415531,-0.0017903646,0.0000651042,0.1746419271
559020.7800242211,-0.0856018066,0.0112915039,9.7822570804,-0.0013237847,0.0000759549,0.1746636285
559020.7900242209,-0.0860595703,0.0042724609,9.7808837894,-0.0013888889,0.0000325521,0.1746853299
559020.8000242210,-0.0845336914,0.0094604492,9.7814941409,-0.0017252604,0.0000759549,0.1746636285
559020.8100242210,-0.0839233398,0.0068664551,9.7811889652,-0.0010633681,0.0000651042,0.1746093750
559020.8200242210,-0.0857543945,0.0057983398,9.7816467288,-0.0019422743,0.0000976562,0.1745768229
559020.8300242210,-0.0862121582,0.0086975098,9.7811889652,-0.0008789062,0.0000325521,0.1746093750
559020.8400242210,-0.0842285156,0.0038146973,9.7813415531,-0.0019965278,0.0000651042,0.1745225694
559020.8500242210,-0.0849914551,0.0128173828,9.7821044925,-0.0009765625,0.0000434028,0.1745442708
559020.8600242210,-0.0854492188,0.0030517578,9.7810363773,-0.0018554687,0.0000868056,0.1745659722
559020.8700242210,-0.0854492188,0.0099182129,9.7813415531,-0.0012369792,0.0000434028,0.1746202257
559020.8800242210,-0.0843811035,0.0028991699,9.7811889652,-0.0014648437,0.0000759549,0.1745985243
559020.8900242210,-0.0857543945,0.0115966797,9.7821044925,-0.0015625000,0.0000759549,0.1746093750
559020.9000242210,-0.0839233398,0.0062561035,9.7813415531,-0.0011935764,0.0000759549,0.1745768229
559020.9100242211,-0.0857543945,0.0067138672,9.7811889652,-0.0018880208,0.0000651042,0.1746310764
559020.9200242209,-0.0854492188,0.0064086914,9.7814941409,-0.0009440104,0.0000434028,0.1746744792
559020.9300242210,-0.0840759277,0.0062561035,9.7821044925,-0.0020182292,0.0000976562,0.1746744792
559020.9400242210,-0.0843811035,0.0117492676,9.7819519046,-0.0009223090,0.0000434028,0.1747287326
559020.9500242210,-0.0837707520,0.0021362305,9.7816467288,-0.0019422743,0.0000759549,0.1746636285
559020.9600242210,-0.0859069824,0.0106811523,9.7816467288,-0.0010416667,0.0000759549,0.1746419271
559020.9700242210,-0.0856018066,0.0033569336,9.7811889652,-0.0016384549,0.0000868056,0.1745985243
559020.9800242210,-0.0846862793,0.0122070313,9.7821044925,-0.0015082465,0.0000759549,0.1745442708
559020.9900242210,-0.0842285156,0.0051879883,9.7811889652,-0.0011827257,0.0000434028,0.1745768229
559021.0000242210,-0.0851440430,0.0057983398,9.7814941409,-0.0019205729,0.0000868056,0.1745876736
559021.0100242210,-0.0859069824,0.0090026855,9.7813415531,-0.0008572049,0.0000434028,0.1748697917
559021.0200242210,-0.0840759277,0.0056457520,9.7816467288,-0.0020290799,0.0000868056,0.1745659722
559021.0300242211,-0.0839233398,0.0111389160,9.7819519046,-0.0009331597,0.0000434028,0.1745876736
559021.0400242209,-0.0851440430,0.0019836426,9.7813415531,-0.0018337674,0.0000759549,0.1745985243
559021.0500242210,-0.0856018066,0.0117492676,9.7811889652,-0.0012803819,0.0000434028,0.1746202257
559021.0600242210,-0.0843811035,0.0039672852,9.7807312015,-0.0014214410,0.0000759549,0.1746202257
559021.0700242210,-0.0837707520,0.0096130371,9.7817993167,-0.0017035590,0.0000759549,0.1746636285
559021.0800242210,-0.0854492188,0.0061035156,9.7813415531,-0.0010199653,0.0000651042,0.1745768229
559021.0900242210,-0.0856018066,0.0070190430,9.7813415531,-0.0019965278,0.0000868056,0.1746202257
559021.1000242210,-0.0846862793,0.0105285645,9.7813415531,-0.0008463542,0.0000759549,0.1746527778
559021.1100242210,-0.0842285156,0.0024414063,9.7811889652,-0.0020182292,0.0000759549,0.1745768229
559021.1200242210,-0.0846862793,0.0120544434,9.7814941409,-0.0010308160,0.0000651042,0.1746093750
559021.1300242210,-0.0845336914,0.0042724609,9.7811889652,-0.0016601562,0.0000868056,0.1745659722
559021.1400242210,-0.0843811035,0.0111389160,9.7821044925,-0.0014648437,0.0000651042,0.1745985243
559021.1500242210,-0.0837707520,0.0039672852,9.7811889652,-0.0012261285,0.0000651042,0.1745985243
559021.1600242211,-0.0849914551,0.0077819824,9.7819519046,-0.0018120660,0.0000868056,0.1745768229
559021.1700242209,-0.0842285156,0.0096130371,9.7819519046,-0.0009440104,0.0000434028,0.1746202257
559021.1800242210,-0.0849914551,0.0054931641,9.7811889652,-0.0020616319,0.0000759549,0.1746419271
559021.1900242210,-0.0846862793,0.0096130371,9.7810363773,-0.0009331597,0.0000434028,0.1746419271
559021.2000242210,-0.0831604004,0.0027465820,9.7817993167,-0.0018880208,0.0000976562,0.1746527778
559021.2100242210,-0.0849914551,0.0134277344,9.7817993167,-0.0011176215,0.0000651042,0.1746202257
559021.2200242210,-0.0848388672,0.0027465820,9.7810363773,-0.0016384549,0.0000651042,0.1746310764
559021.2300242210,-0.0846862793,0.0090026855,9.7807312015,-0.0014214410,0.0000759549,0.1746419271
559021.2400242210,-0.0852966309,0.0051879883,9.7814941409,-0.0012152778,0.0000759549,0.1746202257
559021.2500242210,-0.0839233398,0.0086975098,9.7819519046,-0.0018988715,0.0000868056,0.1746527778
559021.2600242210,-0.0846862793,0.0085449219,9.7813415531,-0.0009223090,0.0000651042,0.1746310764
559021.2700242210,-0.0849914551,0.0041198730,9.7813415531,-0.0020507812,0.0000325521,0.1746093750
559021.2800242211,-0.0846862793,0.0114440918,9.7816467288,-0.0008789062,0.0000759549,0.1746310764
559021.2900242209,-0.0837707520,0.0030517578,9.7819519046,-0.0018554687,0.0000976562,0.1745985243
559021.3000242210,-0.0851440430,0.0111389160,9.7816467288,-0.0012369792,0.0000434028,0.1745985243
559021.3100242210,-0.0852966309,0.0036621094,9.7816467288,-0.0014214410,0.0000651042,0.1745768229
559021.3200242210,-0.0849914551,0.0117492676,9.7814941409,-0.0017252604,0.0000759549,0.1745225694
559021.3300242210,-0.0837707520,0.0062561035,9.7813415531,-0.0010742187,0.0000434028,0.1745876736
559021.3400242210,-0.0848388672,0.0061035156,9.7821044925,-0.0019314236,0.0001085069,0.1745876736
559021.3500242210,-0.0857543945,0.0091552734,9.7821044925,-0.0008680556,0.0000434028,0.1745876736
559021.3600242210,-0.0851440430,0.0044250488,9.7810363773,-0.0019965278,0.0000759549,0.1746202257
559021.3700242210,-0.0839233398,0.0128173828,9.7816467288,-0.0009657118,0.0000759549,0.1746636285
559021.3800242210,-0.0845336914,0.0018310547,9.7813415531,-0.0018229167,0.0000868056,0.1746310764
559021.3900242210,-0.0857543945,0.0111389160,9.7819519046,-0.0013020833,0.0000759549,0.1746419271
559021.4000242210,-0.0842285156,0.0039672852,9.7810363773,-0.0014105903,0.0000651042,0.1746310764
559021.4100242211,-0.0840759277,0.0111389160,9.7811889652,-0.0016601562,0.0000759549,0.1746527778
559021.4200242209,-0.0840759277,0.0068664551,9.7810363773,-0.0010525174,0.0000868056,0.1746636285
559021.4300242210,-0.0851440430,0.0056457520,9.7810363773,-0.0019422743,0.0001085069,0.1746527778
559021.4400242210,-0.0839233398,0.0093078613,9.7824096683,-0.0008572049,0.0000217014,0.1746310764
559021.4500242210,-0.0839233398,0.0054931641,9.7813415531,-0.0020182292,0.0000976562,0.1746093750
559021.4600242210,-0.0848388672,0.0111389160,9.7811889652,-0.0010091146,0.0000434028,0.1746202257
559021.4700242210,-0.0846862793,0.0007629395,9.7814941409,-0.0017252604,0.0000868056,0.1745985243
559021.4800242210,-0.0849914551,0.0129699707,9.7821044925,-0.0013346354,0.0000868056,0.1746310764
559021.4900242210,-0.0839233398,0.0056457520,9.7816467288,-0.0013129340,0.0000542535,0.1745551215
559021.5000242210,-0.0839233398,0.0083923340,9.7817993167,-0.0018771701,0.0000868056,0.1745985243
559021.5100242210,-0.0846862793,0.0068664551,9.7819519046,-0.0008789062,0.0000868056,0.1746093750
559021.5200242210,-0.0854492188,0.0045776367,9.7819519046,-0.0021158854,0.0000759549,0.1746093750
559021.5300242211,-0.0836181641,0.0123596191,9.7814941409,-0.0008680556,0.0000434028,0.1746202257
559021.5400242209,-0.0831604004,0.0027465820,9.7796630863,-0.0018337674,0.0000976562,0.1746093750
559021.5500242210,-0.0846862793,0.0125122070,9.7810363773,-0.0012803819,0.0000434028,0.1746202257
559021.5600242210,-0.0851440430,0.0035095215,9.7824096683,-0.0013346354,0.0000868056,0.1745985243
559021.5700242210,-0.0851440430,0.0086975098,9.7817993167,-0.0017903646,0.0000651042,0.1745659722
559021.5800242210,-0.0842285156,0.0070190430,9.7825622562,-0.0010308160,0.0000325521,0.1746310764
559021.5900242210,-0.0842285156,0.0080871582,9.7824096683,-0.0019748264,0.0000868056,0.1746527778
559021.6000242210,-0.0856018066,0.0099182129,9.7819519046,-0.0009223090,0.0000651042,0.1746419271
559021.6100242210,-0.0852966309,0.0033569336,9.7811889652,-0.0019422743,0.0000759549,0.1746093750
559021.6200242210,-0.0842285156,0.0105285645,9.7811889652,-0.0010091146,0.0000434028,0.1746419271
559021.6300242210,-0.0828552246,0.0039672852,9.7802734378,-0.0018012153,0.0000868056,0.1746527778
559021.6400242220,-0.0849914551,0.0117492676,9.7816467288,-0.0012369792,0.0000759549,0.1746744792
559021.6500242220,-0.0863647461,0.0022888184,9.7808837894,-0.0014973958,0.0000542535,0.1746419271
559021.6600242220,-0.0846862793,0.0102233887,9.7816467288,-0.0016167535,0.0000542535,0.1746527778
559021.6700242220,-0.0822448730,0.0061035156,9.7822570804,-0.0011067708,0.0000759549,0.1746419271
559021.6800242220,-0.0839233398,0.0073242188,9.7816467288,-0.0019314236,0.0000976562,0.1746202257
559021.6900242220,-0.0872802734,0.0099182129,9.7814941409,-0.0008572049,0.0000325521,0.1746310764
559021.7000242220,-0.0851440430,0.0039672852,9.7816467288,-0.0020073785,0.0000868056,0.1745768229
559021.7100242220,-0.0822448730,0.0114440918,9.7817993167,-0.0009765625,0.0000434028,0.1746310764
559021.7200242220,-0.0836181641,0.0027465820,9.7807312015,-0.0017686632,0.0000759549,0.1746310764
559021.7300242221,-0.0865173340,0.0117492676,9.7817993167,-0.0013346354,0.0000651042,0.1745659722
559021.7400242219,-0.0846862793,0.0033569336,9.7819519046,-0.0013671875,0.0000542535,0.1745876736
559021.7500242220,-0.0833129883,0.0097656250,9.7825622562,-0.0016493056,0.0000868056,0.1745659722
559021.7600242220,-0.0837707520,0.0071716309,9.7816467288,-0.0010742187,0.0000868056,0.1745659722
559021.7700242220,-0.0846862793,0.0059509277,9.7811889652,-0.0019205729,0.0000651042,0.1746419271
559021.7800242220,-0.0848388672,0.0094604492,9.7814941409,-0.0009331597,0.0000651042,0.1746202257
559021.7900242220,-0.0849914551,0.0032043457,9.7807312015,-0.0020182292,0.0000976562,0.1746202257
559021.8000242220,-0.0846862793,0.0111389160,9.7813415531,-0.0009440104,0.0000325521,0.1746202257
559021.8100242220,-0.0831604004,0.0051879883,9.7814941409,-0.0017469618,0.0000976562,0.1745659722
559021.8200242220,-0.0846862793,0.0117492676,9.7817993167,-0.0013129340,0.0000868056,0.1745985243
559021.8300242220,-0.0840759277,0.0018310547,9.7816467288,-0.0013888889,0.0000325521,0.1745985243
559021.8400242220,-0.0833129883,0.0086975098,9.7819519046,-0.0016818576,0.0000976562,0.1745876736
559021.8500242220,-0.0836181641,0.0079345703,9.7808837894,-0.0010199653,0.0000651042,0.1745876736
559021.8600242221,-0.0846862793,0.0079345703,9.7808837894,-0.0020724826,0.0000759549,0.1746093750
559021.8700242219,-0.0843811035,0.0080871582,9.7817993167,-0.0008463542,0.0000759549,0.1746202257
559021.8800242220,-0.0833129883,0.0022888184,9.7813415531,-0.0019314236,0.0000868056,0.1746093750
559021.8900242220,-0.0836181641,0.0135803223,9.7816467288,-0.0010416667,0.0000651042,0.1746093750
559021.9000242220,-0.0848388672,0.0035095215,9.7810363773,-0.0017252604,0.0000868056,0.1746527778
559021.9100242220,-0.0851440430,0.0093078613,9.7821044925,-0.0014431424,0.0000759549,0.1746744792
559021.9200242220,-0.0839233398,0.0035095215,9.7813415531,-0.0012369792,0.0000434028,0.1746636285
559021.9300242220,-0.0834655762,0.0099182129,9.7821044925,-0.0017903646,0.0001302083,0.1746527778
559021.9400242220,-0.0851440430,0.0090026855,9.7813415531,-0.0010091146,0.0000434028,0.1745551215
559021.9500242220,-0.0849914551,0.0048828125,9.7810363773,-0.0019422743,0.0000868056,0.1745876736
559021.9600242220,-0.0834655762,0.0086975098,9.7814941409,-0.0009006076,0.0000759549,0.1745876736
559021.9700242220,-0.0842285156,0.0045776367,9.7807312015,-0.0019422743,0.0000759549,0.1745659722
559021.9800242221,-0.0843811035,0.0120544434,9.7816467288,-0.0010416667,0.0000759549,0.1745659722
559021.9900242219,-0.0846862793,0.0027465820,9.7821044925,-0.0017903646,0.0000868056,0.1745985243
559022.0000242220,-0.0839233398,0.0106811523,9.7814941409,-0.0012912326,0.0000434028,0.1745985243
559022.0100242220,-0.0840759277,0.0047302246,9.7808837894,-0.0013997396,0.0000759549,0.1749023437
559022.0200242220,-0.0842285156,0.0106811523,9.7816467288,-0.0016384549,0.0000868056,0.1746419271
559022.0300242220,-0.0840759277,0.0051879883,9.7814941409,-0.0011393229,0.0000434028,0.1746419271
559022.0400242220,-0.0843811035,0.0065612793,9.7814941409,-0.0018554687,0.0000868056,0.1746636285
559022.0500242220,-0.0843811035,0.0091552734,9.7824096683,-0.0009331597,0.0000434028,0.1747178819
559022.0600242220,-0.0836181641,0.0048828125,9.7811889652,-0.0020724826,0.0000868056,0.1746636285
559022.0700242220,-0.0840759277,0.0103759766,9.7819519046,-0.0009223090,0.0000651042,0.1746527778
559022.0800242220,-0.0846862793,0.0007629395,9.7811889652,-0.0018229167,0.0000759549,0.1746527778
559022.0900242220,-0.0840759277,0.0122070313,9.7819519046,-0.0012152778,0.0000651042,0.1746527778
559022.1000242220,-0.0839233398,0.0053405762,9.7811889652,-0.0014214410,0.0000868056,0.1745876736
559022.1100242221,-0.0842285156,0.0094604492,9.7817993167,-0.0017361111,0.0000651042,0.1745985243
559022.1200242219,-0.0848388672,0.0054931641,9.7816467288,-0.0010308160,0.0000759549,0.1746093750
559022.1300242220,-0.0846862793,0.0065612793,9.7822570804,-0.0019639757,0.0000976562,0.1746419271
559022.1400242220,-0.0834655762,0.0108337402,9.7816467288,-0.0008897569,0.0000434028,0.1746419271
559022.1500242220,-0.0834655762,0.0036621094,9.7814941409,-0.0019748264,0.0000868056,0.1745985243
559022.1600242220,-0.0839233398,0.0097656250,9.7822570804,-0.0009874132,0.0000651042,0.1746310764
559022.1700242220,-0.0843811035,0.0027465820,9.7810363773,-0.0017469618,0.0000759549,0.1746419271
559022.1800242220,-0.0848388672,0.0125122070,9.7817993167,-0.0013020833,0.0000759549,0.1746636285
559022.1900242220,-0.0834655762,0.0036621094,9.7811889652,-0.0014648437,0.0000651042,0.1746419271
559022.2000242220,-0.0836181641,0.0088500977,9.7817993167,-0.0016167535,0.0000976562,0.1745985243
559022.2100242220,-0.0842285156,0.0064086914,9.7808837894,-0.0010525174,0.0000434028,0.1746093750
559022.2200242220,-0.0848388672,0.0071716309,9.7817993167,-0.0019856771,0.0000976562,0.1745659722
559022.2300242221,-0.0836181641,0.0088500977,9.7817993167,-0.0008138021,0.0000434028,0.1745551215
559022.2400242219,-0.0834655762,0.0019836426,9.7817993167,-0.0020290799,0.0001085069,0.1746093750
559022.2500242220,-0.0848388672,0.0128173828,9.7821044925,-0.0010199653,0.0000651042,0.1746093750
559022.2600242220,-0.0836181641,0.0035095215,9.7813415531,-0.0017144097,0.0000868056,0.1746093750
559022.2700242220,-0.0848388672,0.0106811523,9.7814941409,-0.0014105903,0.0000759549,0.1746310764
559022.2800242220,-0.0839233398,0.0032043457,9.7817993167,-0.0012695312,0.0000651042,0.1746527778
559022.2900242220,-0.0843811035,0.0083923340,9.7813415531,-0.0017361111,0.0000868056,0.1745985243
559022.3000242220,-0.0837707520,0.0079345703,9.7814941409,-0.0010199653,0.0000759549,0.1746310764
559022.3100242220,-0.0849914551,0.0068664551,9.7814941409,-0.0019856771,0.0000868056,0.1746093750
559022.3200242220,-0.0845336914,0.0091552734,9.7822570804,-0.0009006076,0.0000651042,0.1746636285
559022.3300242220,-0.0836181641,0.0019836426,9.7813415531,-0.0019856771,0.0000868056,0.1746961805
559022.3400242220,-0.0837707520,0.0114440918,9.7813415531,-0.0009765625,0.0000759549,0.1746636285
559022.3500242220,-0.0849914551,0.0045776367,9.7811889652,-0.0017686632,0.0000759549,0.1746527778
559022.3600242221,-0.0859069824,0.0106811523,9.7814941409,-0.0012803819,0.0000759549,0.1746636285
559022.3700242219,-0.0830078125,0.0021362305,9.7813415531,-0.0014105903,0.0000868056,0.1746419271
559022.3800242220,-0.0840759277,0.0096130371,9.7816467288,-0.0016601562,0.0000759549,0.1746093750
559022.3900242220,-0.0854492188,0.0083923340,9.7814941409,-0.0010742187,0.0000651042,0.1745334201
559022.4000242220,-0.0843811035,0.0062561035,9.7810363773,-0.0020073785,0.0000976562,0.1745768229
559022.4100242220,-0.0842285156,0.0074768066,9.7816467288,-0.0008138021,0.0000434028,0.1746093750
559022.4200242220,-0.0820922852,0.0042724609,9.7816467288,-0.0019422743,0.0001085069,0.1745876736
559022.4300242220,-0.0866699219,0.0132751465,9.7816467288,-0.0010308160,0.0000759549,0.1745768229
559022.4400242220,-0.0852966309,0.0009155273,9.7810363773,-0.0017686632,0.0000759549,0.1746310764
559022.4500242220,-0.0827026367,0.0115966797,9.7813415531,-0.0013346354,0.0000651042,0.1745876736
559022.4600242220,-0.0827026367,0.0048828125,9.7808837894,-0.0013563368,0.0000976562,0.1746527778
559022.4700242220,-0.0848388672,0.0091552734,9.7825622562,-0.0017686632,0.0000759549,0.1745985243
559022.4800242221,-0.0849914551,0.0061035156,9.7834777835,-0.0010091146,0.0000651042,0.1746310764
559022.4900242219,-0.0846862793,0.0056457520,9.7821044925,-0.0019205729,0.0000868056,0.1746202257
559022.5000242220,-0.0830078125,0.0105285645,9.7801208499,-0.0008897569,0.0000651042,0.1746419271
559022.5100242220,-0.0836181641,0.0025939941,9.7804260257,-0.0019965278,0.0001085069,0.1745985243
559022.5200242220,-0.0857543945,0.0115966797,9.7814941409,-0.0009548611,0.0000651042,0.1745768229
559022.5300242220,-0.0842285156,0.0036621094,9.7804260257,-0.0017578125,0.0000651042,0.1745985243
559022.5400242220,-0.0834655762,0.0117492676,9.7813415531,-0.0013671875,0.0000868056,0.1745768229
559022.5500242220,-0.0825500488,0.0027465820,9.7819519046,-0.0012912326,0.0000651042,0.1745442708
559022.5600242220,-0.0846862793,0.0085449219,9.7816467288,-0.0017252604,0.0000868056,0.1745551215
559022.5700242220,-0.0848388672,0.0097656250,9.7816467288,-0.0010308160,0.0000325521,0.1745008680
559022.5800242220,-0.0834655762,0.0059509277,9.7811889652,-0.0019856771,0.0000976562,0.1745117187
559022.5900242220,-0.0833129883,0.0080871582,9.7817993167,-0.0009223090,0.0000651042,0.1746527778
559022.6000242220,-0.0840759277,0.0030517578,9.7814941409,-0.0019314236,0.0001193576,0.1747612847
559022.6100242221,-0.0849914551,0.0122070313,9.7811889652,-0.0009874132,0.0000325521,0.1747938368
559022.6200242219,-0.0845336914,0.0030517578,9.7813415531,-0.0017686632,0.0000976562,0.1746961805
559022.6300242220,-0.0822448730,0.0106811523,9.7819519046,-0.0012912326,0.0000759549,0.1745985243
559022.6400242220,-0.0843811035,0.0033569336,9.7817993167,-0.0013780382,0.0000976562,0.1745876736
559022.6500242220,-0.0846862793,0.0106811523,9.7819519046,-0.0016493056,0.0000759549,0.1745442708
559022.6600242220,-0.0849914551,0.0074768066,9.7814941409,-0.0011501736,0.0000434028,0.1745551215
559022.6700242220,-0.0828552246,0.0065612793,9.7805786136,-0.0018446181,0.0000976562,0.1745876736
559022.6800242220,-0.0827026367,0.0074768066,9.7819519046,-0.0009006076,0.0000759549,0.1745768229
559022.6900242220,-0.0840759277,0.0044250488,9.7814941409,-0.0019856771,0.0000976562,0.1745008680
559022.7000242220,-0.0848388672,0.0119018555,9.7819519046,-0.0009440104,0.0000434028,0.1745225694
559022.7100242220,-0.0833129883,0.0018310547,9.7808837894,-0.0018554687,0.0000868056,0.1745225694
559022.7200242230,-0.0820922852,0.0102233887,9.7814941409,-0.0012695312,0.0000759549,0.1745985243
559022.7300242230,-0.0834655762,0.0036621094,9.7813415531,-0.0013780382,0.0000868056,0.1746419271
559022.7400242230,-0.0839233398,0.0100708008,9.7817993167,-0.0017035590,0.0000759549,0.1746093750
559022.7500242230,-0.0846862793,0.0068664551,9.7813415531,-0.0010199653,0.0000651042,0.1746527778
559022.7600242230,-0.0831604004,0.0056457520,9.7813415531,-0.0019314236,0.0000976562,0.1746419271
559022.7700242230,-0.0843811035,0.0102233887,9.7819519046,-0.0008463542,0.0000651042,0.1746527778
559022.7800242230,-0.0846862793,0.0041198730,9.7813415531,-0.0019856771,0.0000976562,0.1746527778
559022.7900242230,-0.0842285156,0.0120544434,9.7814941409,-0.0010416667,0.0000651042,0.1745551215
559022.8000242230,-0.0827026367,0.0016784668,9.7808837894,-0.0017144097,0.0000759549,0.1745442708
559022.8100242231,-0.0849914551,0.0112915039,9.7810363773,-0.0013346354,0.0000976562,0.1745551215
559022.8200242230,-0.0845336914,0.0051879883,9.7821044925,-0.0013237847,0.0000759549,0.1745659722
559022.8300242230,-0.0845336914,0.0091552734,9.7821044925,-0.0017035590,0.0000759549,0.1745551215
559022.8400242230,-0.0843811035,0.0067138672,9.7813415531,-0.0010525174,0.0000759549,0.1746202257
559022.8500242230,-0.0834655762,0.0067138672,9.7814941409,-0.0019422743,0.0000868056,0.1746202257
559022.8600242230,-0.0845336914,0.0093078613,9.7814941409,-0.0008789062,0.0000759549,0.1746527778
559022.8700242230,-0.0837707520,0.0035095215,9.7813415531,-0.0019748264,0.0000976562,0.1745985243
559022.8800242230,-0.0845336914,0.0120544434,9.7824096683,-0.0009440104,0.0000651042,0.1746419271
559022.8900242230,-0.0827026367,0.0019836426,9.7811889652,-0.0017469618,0.0000868056,0.1746093750
559022.9000242230,-0.0833129883,0.0114440918,9.7817993167,-0.0013346354,0.0000976562,0.1746419271
559022.9100242230,-0.0856018066,0.0033569336,9.7817993167,-0.0013129340,0.0000434028,0.1746853299
559022.9200242230,-0.0854492188,0.0088500977,9.7808837894,-0.0018120660,0.0000868056,0.1746527778
559022.9300242231,-0.0827026367,0.0080871582,9.7816467288,-0.0009548611,0.0000434028,0.1746527778
559022.9400242229,-0.0834655762,0.0042724609,9.7811889652,-0.0019639757,0.0000976562,0.1746093750
559022.9500242230,-0.0839233398,0.0106811523,9.7811889652,-0.0008680556,0.0000759549,0.1746202257
559022.9600242230,-0.0857543945,0.0028991699,9.7810363773,-0.0019205729,0.0000868056,0.1745985243
559022.9700242230,-0.0840759277,0.0108337402,9.7819519046,-0.0010959201,0.0000325521,0.1746202257
559022.9800242230,-0.0822448730,0.0039672852,9.7813415531,-0.0016818576,0.0000976562,0.1746310764
559022.9900242230,-0.0833129883,0.0112915039,9.7819519046,-0.0013671875,0.0000759549,0.1746636285
559023.0000242230,-0.0846862793,0.0036621094,9.7816467288,-0.0013237847,0.0000759549,0.1746636285
559023.0100242230,-0.0848388672,0.0096130371,9.7811889652,-0.0017035590,0.0000759549,0.1749240451
559023.0200242230,-0.0831604004,0.0061035156,9.7814941409,-0.0010199653,0.0000759549,0.1746961805
559023.0300242230,-0.0827026367,0.0057983398,9.7813415531,-0.0019639757,0.0000976562,0.1746853299
559023.0400242230,-0.0848388672,0.0103759766,9.7814941409,-0.0008572049,0.0000651042,0.1746636285
559023.0500242230,-0.0845336914,0.0030517578,9.7813415531,-0.0019965278,0.0000759549,0.1745659722
559023.0600242231,-0.0842285156,0.0123596191,9.7821044925,-0.0010416667,0.0000434028,0.1745876736
559023.0700242230,-0.0836181641,0.0030517578,9.7813415531,-0.0016601562,0.0000868056,0.1745442708
559023.0800242230,-0.0837707520,0.0109863281,9.7817993167,-0.0013888889,0.0000759549,0.1745442708
559023.0900242230,-0.0840759277,0.0036621094,9.7811889652,-0.0012695312,0.0000759549,0.1745551215
559023.1000242230,-0.0840759277,0.0082397461,9.7814941409,-0.0017361111,0.0000868056,0.1745551215
559023.1100242230,-0.0840759277,0.0073242188,9.7816467288,-0.0009657118,0.0000651042,0.1746093750
559023.1200242230,-0.0842285156,0.0056457520,9.7814941409,-0.0020290799,0.0001085069,0.1746202257
559023.1300242230,-0.0843811035,0.0100708008,9.7816467288,-0.0008355035,0.0000434028,0.1746202257
559023.1400242230,-0.0846862793,0.0016784668,9.7817993167,-0.0019422743,0.0000976562,0.1746202257
559023.1500242230,-0.0836181641,0.0135803223,9.7822570804,-0.0010742187,0.0000868056,0.1746636285
559023.1600242230,-0.0836181641,0.0028991699,9.7808837894,-0.0015733507,0.0000651042,0.1746744792
559023.1700242230,-0.0839233398,0.0091552734,9.7816467288,-0.0015299479,0.0000759549,0.1746853299
559023.1800242231,-0.0837707520,0.0053405762,9.7810363773,-0.0011393229,0.0000651042,0.1746527778
559023.1900242229,-0.0836181641,0.0082397461,9.7822570804,-0.0019097222,0.0000759549,0.1746202257
559023.2000242230,-0.0843811035,0.0090026855,9.7814941409,-0.0008680556,0.0000868056,0.1745768229
559023.2100242230,-0.0836181641,0.0024414063,9.7813415531,-0.0020290799,0.0000868056,0.1745659722
559023.2200242230,-0.0836181641,0.0123596191,9.7822570804,-0.0008789062,0.0000759549,0.1745768229
559023.2300242230,-0.0836181641,0.0025939941,9.7810363773,-0.0018229167,0.0000868056,0.1745659722
559023.2400242230,-0.0831604004,0.0105285645,9.7810363773,-0.0012478299,0.0000651042,0.1745551215
559023.2500242230,-0.0836181641,0.0036621094,9.7808837894,-0.0013997396,0.0000759549,0.1746202257
559023.2600242230,-0.0828552246,0.0086975098,9.7813415531,-0.0017035590,0.0000976562,0.1746636285
559023.2700242230,-0.0840759277,0.0074768066,9.7811889652,-0.0009874132,0.0000434028,0.1746744792
559023.2800242230,-0.0840759277,0.0047302246,9.7824096683,-0.0019856771,0.0000976562,0.1746636285
559023.2900242230,-0.0843811035,0.0109863281,9.7816467288,-0.0008463542,0.0000651042,0.1746419271
559023.3000242230,-0.0831604004,0.0025939941,9.7811889652,-0.0019639757,0.0000868056,0.1746636285
559023.3100242231,-0.0834655762,0.0108337402,9.7813415531,-0.0010525174,0.0000651042,0.1746527778
559023.3200242230,-0.0834655762,0.0021362305,9.7813415531,-0.0016167535,0.0001085069,0.1746419271
559023.3300242230,-0.0840759277,0.0112915039,9.7813415531,-0.0014648437,0.0000868056,0.1745985243
559023.3400242230,-0.0839233398,0.0050354004,9.7811889652,-0.0012152778,0.0000651042,0.1746202257
559023.3500242230,-0.0825500488,0.0076293945,9.7817993167,-0.0018120660,0.0001085069,0.1745985243
559023.3600242230,-0.0830078125,0.0079345703,9.7814941409,-0.0009006076,0.0000651042,0.1745768229
559023.3700242230,-0.0848388672,0.0048828125,9.7814941409,-0.0020507812,0.0001085069,0.1745551215
559023.3800242230,-0.0834655762,0.0103759766,9.7819519046,-0.0008680556,0.0000434028,0.1745659722
559023.3900242230,-0.0833129883,0.0021362305,9.7810363773,-0.0018880208,0.0000759549,0.1745985243
559023.4000242230,-0.0834655762,0.0122070313,9.7817993167,-0.0012152778,0.0000976562,0.1745876736
559023.4100242230,-0.0837707520,0.0038146973,9.7804260257,-0.0013997396,0.0000651042,0.1746310764
559023.4200242230,-0.0839233398,0.0086975098,9.7824096683,-0.0017469618,0.0000976562,0.1746093750
559023.4300242231,-0.0834655762,0.0073242188,9.7811889652,-0.0009223090,0.0000434028,0.1746527778
559023.4400242229,-0.0837707520,0.0051879883,9.7811889652,-0.0020182292,0.0001085069,0.1746636285
559023.4500242230,-0.0837707520,0.0103759766,9.7819519046,-0.0008680556,0.0000759549,0.1746419271
559023.4600242230,-0.0833129883,0.0018310547,9.7814941409,-0.0019422743,0.0000976562,0.1746202257
559023.4700242230,-0.0833129883,0.0119018555,9.7816467288,-0.0010742187,0.0000651042,0.1745876736
559023.4800242230,-0.0837707520,0.0039672852,9.7808837894,-0.0015842014,0.0000868056,0.1745876736
559023.4900242230,-0.0837707520,0.0097656250,9.7821044925,-0.0014214410,0.0000759549,0.1746202257
559023.5000242230,-0.0837707520,0.0044250488,9.7813415531,-0.0012261285,0.0000759549,0.1745985243
559023.5100242230,-0.0840759277,0.0083923340,9.7817993167,-0.0018229167,0.0000868056,0.1745876736
559023.5200242230,-0.0836181641,0.0077819824,9.7813415531,-0.0009440104,0.0000434028,0.1745876736
559023.5300242230,-0.0825500488,0.0053405762,9.7811889652,-0.0019965278,0.0000976562,0.1745008680
559023.5400242230,-0.0833129883,0.0105285645,9.7817993167,-0.0008789062,0.0000759549,0.1745551215
559023.5500242230,-0.0843811035,0.0021362305,9.7813415531,-0.0018988715,0.0000868056,0.1745876736
559023.5600242231,-0.0837707520,0.0114440918,9.7813415531,-0.0010633681,0.0000759549,0.1746093750
559023.5700242230,-0.0831604004,0.0027465820,9.7817993167,-0.0016384549,0.0000759549,0.1746310764
559023.5800242230,-0.0830078125,0.0117492676,9.7816467288,-0.0014105903,0.0001085069,0.1746853299
559023.5900242230,-0.0840759277,0.0022888184,9.7805786136,-0.0012803819,0.0000651042,0.1746636285
559023.6000242230,-0.0840759277,0.0083923340,9.7821044925,-0.0017578125,0.0000868056,0.1746419271
559023.6100242230,-0.0831604004,0.0091552734,9.7813415531,-0.0009440104,0.0000759549,0.1746202257
559023.6200242230,-0.0828552246,0.0047302246,9.7807312015,-0.0019965278,0.0001410590,0.1746636285
559023.6300242230,-0.0833129883,0.0090026855,9.7816467288,-0.0008463542,0.0000434028,0.1746744792
559023.6400242230,-0.0839233398,0.0028991699,9.7813415531,-0.0019205729,0.0001085069,0.1746527778
559023.6500242230,-0.0840759277,0.0126647949,9.7819519046,-0.0010525174,0.0000651042,0.1746202257
559023.6600242230,-0.0830078125,0.0013732910,9.7811889652,-0.0016710069,0.0000976562,0.1745442708
559023.6700242230,-0.0833129883,0.0097656250,9.7814941409,-0.0013780382,0.0000976562,0.1745659722
559023.6800242231,-0.0823974609,0.0045776367,9.7811889652,-0.0011935764,0.0000868056,0.1745442708
559023.6900242229,-0.0839233398,0.0083923340,9.7811889652,-0.0018554687,0.0000542535,0.1745008680
559023.7000242230,-0.0831604004,0.0080871582,9.7814941409,-0.0008463542,0.0000759549,0.1745768229
559023.7100242230,-0.0828552246,0.0025939941,9.7811889652,-0.0020616319,0.0000651042,0.1746202257
559023.7200242230,-0.0842285156,0.0119018555,9.7821044925,-0.0008680556,0.0000759549,0.1746527778
559023.7300242230,-0.0834655762,0.0016784668,9.7816467288,-0.0018229167,0.0000868056,0.1746093750
559023.7400242230,-0.0834655762,0.0126647949,9.7816467288,-0.0012912326,0.0000651042,0.1746419271
559023.7500242230,-0.0819396973,0.0039672852,9.7810363773,-0.0013346354,0.0000868056,0.1746419271
559023.7600242230,-0.0837707520,0.0073242188,9.7819519046,-0.0016710069,0.0000976562,0.1746093750
559023.7700242230,-0.0848388672,0.0071716309,9.7814941409,-0.0010199653,0.0000434028,0.1745876736
559023.7800242230,-0.0827026367,0.0065612793,9.7816467288,-0.0019748264,0.0001085069,0.1745985243
559023.7900242240,-0.0828552246,0.0090026855,9.7814941409,-0.0008789062,0.0000434028,0.1745876736
559023.8000242240,-0.0830078125,0.0018310547,9.7810363773,-0.0019422743,0.0001085069,0.1746093750
559023.8100242240,-0.0840759277,0.0122070313,9.7819519046,-0.0009657118,0.0000651042,0.1745551215
559023.8200242240,-0.0831604004,0.0032043457,9.7808837894,-0.0017252604,0.0000759549,0.1745985243
559023.8300242240,-0.0834655762,0.0099182129,9.7821044925,-0.0013780382,0.0000868056,0.1745985243
559023.8400242240,-0.0837707520,0.0028991699,9.7814941409,-0.0012803819,0.0000868056,0.1746527778
559023.8500242240,-0.0843811035,0.0088500977,9.7810363773,-0.0017903646,0.0000759549,0.1746093750
559023.8600242240,-0.0837707520,0.0080871582,9.7813415531,-0.0009548611,0.0000434028,0.1746310764
559023.8700242240,-0.0825500488,0.0041198730,9.7816467288,-0.0019965278,0.0001085069,0.1746419271
559023.8800242241,-0.0828552246,0.0100708008,9.7811889652,-0.0008572049,0.0000651042,0.1746527778
559023.8900242239,-0.0834655762,0.0028991699,9.7810363773,-0.0018880208,0.0000976562,0.1746093750
559023.9000242240,-0.0842285156,0.0115966797,9.7821044925,-0.0011067708,0.0000759549,0.1746093750
559023.9100242240,-0.0825500488,0.0027465820,9.7807312015,-0.0015950521,0.0000759549,0.1745876736
559023.9200242240,-0.0819396973,0.0102233887,9.7824096683,-0.0014648437,0.0000976562,0.1745442708
559023.9300242240,-0.0848388672,0.0045776367,9.7811889652,-0.0012478299,0.0000759549,0.1745117187
559023.9400242240,-0.0839233398,0.0073242188,9.7810363773,-0.0017578125,0.0000759549,0.1745768229
559023.9500242240,-0.0834655762,0.0071716309,9.7821044925,-0.0008680556,0.0000651042,0.1745768229
559023.9600242240,-0.0823974609,0.0044250488,9.7810363773,-0.0020290799,0.0000976562,0.1746202257
559023.9700242240,-0.0836181641,0.0117492676,9.7824096683,-0.0008463542,0.0000325521,0.1746419271
559023.9800242240,-0.0840759277,0.0013732910,9.7807312015,-0.0019097222,0.0001085069,0.1746527778
559023.9900242240,-0.0837707520,0.0122070313,9.7824096683,-0.0011610243,0.0000759549,0.1746744792
559024.0000242240,-0.0827026367,0.0035095215,9.7814941409,-0.0014214410,0.0000759549,0.1746744792
559024.0100242239,-0.0830078125,0.0090026855,9.7814941409,-0.0016601562,0.0000976562,0.1749457465
559024.0200242240,-0.0833129883,0.0062561035,9.7819519046,-0.0009548611,0.0000434028,0.1746527778
559024.0300242240,-0.0837707520,0.0064086914,9.7810363773,-0.0019965278,0.0000976562,0.1746093750
559024.0400242240,-0.0837707520,0.0086975098,9.7819519046,-0.0008355035,0.0000651042,0.1746310764
559024.0500242240,-0.0817871094,0.0028991699,9.7811889652,-0.0019639757,0.0000759549,0.1745768229
559024.0600242240,-0.0820922852,0.0122070313,9.7814941409,-0.0009874132,0.0000868056,0.1745551215
559024.0700242240,-0.0839233398,0.0025939941,9.7814941409,-0.0017144097,0.0000868056,0.1745551215
559024.0800242240,-0.0845336914,0.0094604492,9.7817993167,-0.0013020833,0.0000759549,0.1745768229
559024.0900242240,-0.0828552246,0.0035095215,9.7813415531,-0.0012695312,0.0000434028,0.1746310764
559024.1000242240,-0.0827026367,0.0094604492,9.7819519046,-0.0018012153,0.0001085069,0.1746636285
559024.1100242240,-0.0831604004,0.0077819824,9.7816467288,-0.0008897569,0.0000434028,0.1746636285
559024.1200242240,-0.0834655762,0.0033569336,9.7819519046,-0.0020507812,0.0000976562,0.1746636285
559024.1300242241,-0.0839233398,0.0103759766,9.7821044925,-0.0008463542,0.0000651042,0.1746527778
559024.1400242239,-0.0817871094,0.0028991699,9.7807312015,-0.0018771701,0.0000976562,0.1746419271
559024.1500242240,-0.0833129883,0.0123596191,9.7822570804,-0.0011176215,0.0000759549,0.1746527778
559024.1600242240,-0.0830078125,0.0025939941,9.7804260257,-0.0015516493,0.0000759549,0.1745985243
559024.1700242240,-0.0842285156,0.0086975098,9.7817993167,-0.0015407986,0.0000759549,0.1746310764
559024.1800242240,-0.0822448730,0.0050354004,9.7816467288,-0.0010742187,0.0000651042,0.1745768229
559024.1900242240,-0.0825500488,0.0068664551,9.7813415531,-0.0019639757,0.0000868056,0.1745008680
559024.2000242240,-0.0840759277,0.0096130371,9.7821044925,-0.0008463542,0.0000651042,0.1746202257
559024.2100242240,-0.0845336914,0.0030517578,9.7808837894,-0.0019965278,0.0000976562,0.1745768229
