t(s),acc_x,acc_y,acc_z,gyro_x,gyro_y,gyro_z
558383.0000236270,9.7889709476,-0.0373840332,0.0645446777,0.0000217014,-0.0000000000,0.0000759549
558383.0100236270,9.7880554202,-0.0375366211,0.0640869141,0.0000217014,-0.0000000000,0.0000434028
558383.0200236270,9.7879028324,-0.0364685059,0.0642395020,0.0000217014,-0.0000000000,0.0000434028
558383.0300236270,9.7886657718,-0.0363159180,0.0651550293,0.0000434028,0.0000217014,0.0000651042
558383.0400236270,9.7882080081,-0.0379943848,0.0654602051,0.0000217014,-0.0000000000,0.0000868056
558383.0500236270,9.7886657718,-0.0378417969,0.0640869141,0.0000434028,-0.0000108507,0.0000434028
558383.0600236270,9.7883605960,-0.0367736816,0.0643920898,0.0000108507,0.0000217014,0.0000434028
558383.0700236270,9.7885131839,-0.0369262695,0.0657653809,0.0000108507,-0.0000108507,0.0000976562
558383.0800236270,9.7891235355,-0.0376892090,0.0656127930,0.0000108507,-0.0000000000,0.0000759549
558383.0900236270,9.7882080081,-0.0375366211,0.0648498535,0.0000325521,-0.0000108507,0.0000108507
558383.1000236270,9.7888183597,-0.0369262695,0.0640869141,0.0000651042,-0.0000000000,0.0000651042
558383.1100236271,9.7883605960,-0.0363159180,0.0646972656,0.0000434028,-0.0000000000,0.0000542535
558383.1200236270,9.7892761234,-0.0375366211,0.0654602051,0.0000108507,-0.0000000000,0.0000325521
558383.1300236270,9.7888183597,-0.0379943848,0.0646972656,0.0000434028,-0.0000108507,0.0000542535
558383.1400236270,9.7886657718,-0.0363159180,0.0642395020,0.0000217014,-0.0000000000,0.0000759549
558383.1500236270,9.7883605960,-0.0369262695,0.0650024414,0.0000325521,-0.0000000000,0.0000542535
558383.1600236270,9.7891235355,-0.0387573242,0.0653076172,0.0000434028,-0.0000000000,0.0000542535
558383.1700236270,9.7886657718,-0.0373840332,0.0646972656,0.0000325521,-0.0000000000,0.0000434028
558383.1800236270,9.7886657718,-0.0357055664,0.0642395020,0.0000325521,-0.0000000000,0.0000325521
558383.1900236270,9.7886657718,-0.0373840332,0.0645446777,0.0000108507,-0.0000000000,0.0000976562
558383.2000236270,9.7888183597,-0.0378417969,0.0648498535,0.0000217014,0.0000108507,0.0000325521
558383.2100236270,9.7885131839,-0.0375366211,0.0645446777,0.0000217014,-0.0000000000,0.0000542535
558383.2200236270,9.7886657718,-0.0366210938,0.0640869141,0.0000325521,0.0000217014,0.0000759549
558383.2300236271,9.7883605960,-0.0370788574,0.0648498535,0.0000868056,-0.0000000000,0.0000759549
558383.2400236269,9.7885131839,-0.0376892090,0.0656127930,0.0004014757,-0.0000000000,0.0000325521
558383.2500236270,9.7894287113,-0.0379943848,0.0654602051,0.0013888889,-0.0000217014,0.0000651042
558383.2600236270,9.7877502445,-0.0375366211,0.0651550293,0.0033311632,-0.0000000000,0.0000976562
558383.2700236270,9.7882080081,-0.0372314453,0.0650024414,0.0047526042,-0.0000217014,0.0000868056
558383.2800236270,9.7888183597,-0.0387573242,0.0656127930,0.0060546875,-0.0000000000,0.0001302083
558383.2900236270,9.7882080081,-0.0382995605,0.0657653809,0.0072157118,-0.0000217014,0.0000976562
558383.3000236270,9.7880554202,-0.0372314453,0.0640869141,0.0078667535,-0.0000434028,0.0000868056
558383.3100236270,9.7888183597,-0.0378417969,0.0650024414,0.0086914062,-0.0000325521,0.0001627604
558383.3200236270,9.7885131839,-0.0379943848,0.0659179688,0.0095377604,-0.0000434028,0.0001410590
558383.3300236270,9.7889709476,-0.0384521484,0.0645446777,0.0101562500,-0.0000434028,0.0000976562
558383.3400236270,9.7885131839,-0.0379943848,0.0637817383,0.0110568576,-0.0000325521,0.0001844618
558383.3500236270,9.7885131839,-0.0364685059,0.0653076172,0.0118815104,-0.0000434028,0.0001410590
558383.3600236271,9.7888183597,-0.0384521484,0.0651550293,0.0127387153,-0.0000434028,0.0001519097
558383.3700236270,9.7886657718,-0.0390625000,0.0657653809,0.0139214410,-0.0000542535,0.0001844618
558383.3800236270,9.7880554202,-0.0366210938,0.0645446777,0.0146918403,-0.0000651042,0.0001627604
558383.3900236270,9.7885131839,-0.0370788574,0.0640869141,0.0155490451,-0.0000759549,0.0001844618
558383.4000236270,9.7889709476,-0.0379943848,0.0657653809,0.0165581597,-0.0000217014,0.0002387153
558383.4100236270,9.7885131839,-0.0375366211,0.0659179688,0.0172417535,-0.0000868056,0.0001736111
558383.4200236270,9.7888183597,-0.0379943848,0.0654602051,0.0182291667,-0.0000542535,0.0001953125
558383.4300236270,9.7883605960,-0.0372314453,0.0645446777,0.0192057292,-0.0001085069,0.0002170139
558383.4400236270,9.7888183597,-0.0375366211,0.0648498535,0.0198133681,-0.0000325521,0.0001953125
558383.4500236270,9.7882080081,-0.0386047363,0.0659179688,0.0210286458,-0.0000976562,0.0002387153
558383.4600236270,9.7883605960,-0.0379943848,0.0653076172,0.0217556424,-0.0000868056,0.0002278646
558383.4700236270,9.7894287113,-0.0372314453,0.0639343262,0.0224175347,-0.0000651042,0.0002387153
558383.4800236271,9.7891235355,-0.0382995605,0.0653076172,0.0236111111,-0.0001085069,0.0002929687
558383.4900236269,9.7889709476,-0.0375366211,0.0651550293,0.0242621528,-0.0000759549,0.0002387153
558383.5000236270,9.7889709476,-0.0375366211,0.0653076172,0.0250976562,-0.0000976562,0.0002387153
558383.5100236270,9.7880554202,-0.0372314453,0.0650024414,0.0262695312,-0.0001302083,0.0002712674
558383.5200236270,9.7885131839,-0.0367736816,0.0648498535,0.0267361111,-0.0000976562,0.0002495660
558383.5300236270,9.7879028324,-0.0395202637,0.0654602051,0.0280707465,-0.0001519097,0.0003038194
558383.5400236270,9.7889709476,-0.0381469727,0.0648498535,0.0290256076,-0.0000868056,0.0002821181
558383.5500236270,9.7885131839,-0.0367736816,0.0651550293,0.0294379340,-0.0001410590,0.0002712674
558383.5600236270,9.7888183597,-0.0386047363,0.0651550293,0.0303168403,-0.0000651042,0.0003363715
558383.5700236270,9.7882080081,-0.0373840332,0.0640869141,0.0312282986,-0.0001302083,0.0002929687
558383.5800236270,9.7894287113,-0.0379943848,0.0653076172,0.0319878472,-0.0001302083,0.0002712674
558383.5900236270,9.7880554202,-0.0376892090,0.0653076172,0.0330403646,-0.0001627604,0.0003580729
558383.6000236270,9.7888183597,-0.0375366211,0.0646972656,0.0338433160,-0.0001302083,0.0003363715
558383.6100236271,9.7888183597,-0.0373840332,0.0646972656,0.0346137153,-0.0001627604,0.0003038194
558383.6200236270,9.7894287113,-0.0386047363,0.0659179688,0.0359483507,-0.0001410590,0.0003580729
558383.6300236270,9.7892761234,-0.0372314453,0.0654602051,0.0365776910,-0.0001302083,0.0003363715
558383.6400236270,9.7886657718,-0.0372314453,0.0653076172,0.0375217014,-0.0001519097,0.0003255208
558383.6500236270,9.7883605960,-0.0381469727,0.0643920898,0.0383463542,-0.0001627604,0.0003797743
558383.6600236270,9.7883605960,-0.0382995605,0.0646972656,0.0388997396,-0.0001519097,0.0003580729
558383.6700236270,9.7882080081,-0.0379943848,0.0654602051,0.0400282118,-0.0001844618,0.0003797743
558383.6800236270,9.7874450687,-0.0373840332,0.0653076172,0.0409505208,-0.0001519097,0.0004014757
558383.6900236270,9.7894287113,-0.0370788574,0.0654602051,0.0416666667,-0.0001736111,0.0003689236
558383.7000236270,9.7885131839,-0.0384521484,0.0648498535,0.0427625868,-0.0001627604,0.0004014757
558383.7100236270,9.7883605960,-0.0370788574,0.0640869141,0.0434787326,-0.0001844618,0.0003797743
558383.7200236270,9.7885131839,-0.0370788574,0.0651550293,0.0441406250,-0.0001519097,0.0004123264
558383.7300236271,9.7886657718,-0.0382995605,0.0662231445,0.0453342014,-0.0001627604,0.0004231771
558383.7400236269,9.7889709476,-0.0369262695,0.0650024414,0.0459418403,-0.0001519097,0.0004123264
558383.7500236270,9.7885131839,-0.0379943848,0.0648498535,0.0468858507,-0.0002061632,0.0004231771
558383.7600236270,9.7885131839,-0.0381469727,0.0645446777,0.0480143229,-0.0001736111,0.0004448785
558383.7700236270,9.7877502445,-0.0361633301,0.0654602051,0.0484700521,-0.0002061632,0.0004231771
558383.7800236270,9.7886657718,-0.0379943848,0.0653076172,0.0493598090,-0.0001844618,0.0004340278
558383.7900236270,9.7879028324,-0.0376892090,0.0643920898,0.0505425347,-0.0001953125,0.0004665799
558383.8000236270,9.7882080081,-0.0375366211,0.0646972656,0.0512478299,-0.0002278646,0.0004448785
558383.8100236270,9.7880554202,-0.0378417969,0.0660705566,0.0523980035,-0.0001953125,0.0004882812
558383.8200236270,9.7889709476,-0.0376892090,0.0648498535,0.0531467014,-0.0001953125,0.0004774306
558383.8300236270,9.7895812991,-0.0364685059,0.0656127930,0.0534830729,-0.0002061632,0.0004557292
558383.8400236280,9.7879028324,-0.0382995605,0.0653076172,0.0549153646,-0.0001953125,0.0005208333
558383.8500236280,9.7880554202,-0.0363159180,0.0645446777,0.0556640625,-0.0002387153,0.0004665799
558383.8600236280,9.7888183597,-0.0384521484,0.0650024414,0.0563802083,-0.0002387153,0.0004882812
558383.8700236280,9.7877502445,-0.0386047363,0.0650024414,0.0575303819,-0.0002495660,0.0005316840
558383.8800236280,9.7885131839,-0.0364685059,0.0651550293,0.0581922743,-0.0002387153,0.0004882812
558383.8900236280,9.7885131839,-0.0373840332,0.0656127930,0.0592447917,-0.0002387153,0.0004991319
558383.9000236280,9.7886657718,-0.0384521484,0.0643920898,0.0600802951,-0.0002170139,0.0005533854
558383.9100236280,9.7877502445,-0.0378417969,0.0646972656,0.0605468750,-0.0002604167,0.0004991319
558383.9200236280,9.7886657718,-0.0386047363,0.0653076172,0.0616970486,-0.0002061632,0.0005425347
558383.9300236281,9.7894287113,-0.0367736816,0.0653076172,0.0626953125,-0.0002712674,0.0005750868
558383.9400236279,9.7894287113,-0.0366210938,0.0648498535,0.0633246528,-0.0002061632,0.0005316840
558383.9500236280,9.7888183597,-0.0384521484,0.0648498535,0.0643663194,-0.0002604167,0.0005859375
558383.9600236280,9.7886657718,-0.0376892090,0.0648498535,0.0650933160,-0.0002604167,0.0005533854
558383.9700236280,9.7891235355,-0.0366210938,0.0643920898,0.0658745660,-0.0002604167,0.0005533854
558383.9800236280,9.7880554202,-0.0376892090,0.0651550293,0.0671332465,-0.0002821181,0.0006076389
558383.9900236280,9.7882080081,-0.0372314453,0.0648498535,0.0677625868,-0.0002929687,0.0005859375
558384.0000236280,9.7882080081,-0.0382995605,0.0656127930,0.0685872396,-0.0002929687,0.0005750868
558384.0100236280,9.7877502445,-0.0375366211,0.0646972656,0.0696614583,-0.0002929687,0.0006184896
558384.0200236280,9.7883605960,-0.0370788574,0.0645446777,0.0703667535,-0.0002821181,0.0006293403
558384.0300236280,9.7886657718,-0.0389099121,0.0654602051,0.0713433160,-0.0002929687,0.0006076389
558384.0400236280,9.7889709476,-0.0373840332,0.0646972656,0.0722656250,-0.0002712674,0.0006293403
558384.0500236280,9.7877502445,-0.0366210938,0.0651550293,0.0728407118,-0.0003146701,0.0006184896
558384.0600236279,9.7891235355,-0.0386047363,0.0646972656,0.0740017361,-0.0002821181,0.0006293403
558384.0700236280,9.7885131839,-0.0381469727,0.0648498535,0.0747721354,-0.0003146701,0.0006401910
558384.0800236280,9.7886657718,-0.0369262695,0.0653076172,0.0753906250,-0.0002712674,0.0006510417
558384.0900236280,9.7888183597,-0.0361633301,0.0648498535,0.0766601562,-0.0003363715,0.0006618924
558384.1000236280,9.7894287113,-0.0367736816,0.0646972656,0.0773003472,-0.0002495660,0.0006510417
558384.1100236280,9.7885131839,-0.0379943848,0.0662231445,0.0782769097,-0.0003689236,0.0006835937
558384.1200236280,9.7877502445,-0.0378417969,0.0648498535,0.0793511285,-0.0003472222,0.0006727431
558384.1300236280,9.7889709476,-0.0372314453,0.0636291504,0.0798177083,-0.0003146701,0.0006510417
558384.1400236280,9.7886657718,-0.0375366211,0.0657653809,0.0805447049,-0.0003255208,0.0007161458
558384.1500236280,9.7883605960,-0.0379943848,0.0660705566,0.0817274306,-0.0003472222,0.0006944444
558384.1600236280,9.7885131839,-0.0370788574,0.0645446777,0.0824218750,-0.0003363715,0.0006510417
558384.1700236280,9.7891235355,-0.0381469727,0.0634765625,0.0834309896,-0.0003363715,0.0007269965
558384.1800236281,9.7894287113,-0.0369262695,0.0645446777,0.0844075521,-0.0003255208,0.0007378472
558384.1900236279,9.7883605960,-0.0376892090,0.0663757324,0.0851562500,-0.0003363715,0.0006944444
558384.2000236280,9.7894287113,-0.0387573242,0.0648498535,0.0860460069,-0.0003255208,0.0007486979
558384.2100236280,9.7888183597,-0.0352478027,0.0645446777,0.0869032118,-0.0003689236,0.0007269965
558384.2200236280,9.7892761234,-0.0372314453,0.0648498535,0.0877712674,-0.0003472222,0.0007486979
558384.2300236280,9.7885131839,-0.0389099121,0.0651550293,0.0889322917,-0.0003689236,0.0007812500
558384.2400236280,9.7886657718,-0.0370788574,0.0640869141,0.0895724826,-0.0003580729,0.0007161458
558384.2500236280,9.7889709476,-0.0373840332,0.0646972656,0.0905273437,-0.0003797743,0.0007486979
558384.2600236280,9.7882080081,-0.0370788574,0.0650024414,0.0913085937,-0.0003472222,0.0008138021
558384.2700236280,9.7889709476,-0.0367736816,0.0654602051,0.0919162326,-0.0003797743,0.0007595486
558384.2800236280,9.7885131839,-0.0382995605,0.0648498535,0.0930664062,-0.0003472222,0.0007921007
558384.2900236280,9.7883605960,-0.0370788574,0.0640869141,0.0940538194,-0.0004014757,0.0008138021
558384.3000236280,9.7889709476,-0.0358581543,0.0650024414,0.0946614583,-0.0003689236,0.0007595486
558384.3100236279,9.7882080081,-0.0386047363,0.0645446777,0.0957899306,-0.0004014757,0.0008246528
558384.3200236280,9.7882080081,-0.0372314453,0.0643920898,0.0966037326,-0.0004014757,0.0008029514
558384.3300236280,9.7883605960,-0.0367736816,0.0645446777,0.0972981771,-0.0003906250,0.0007812500
558384.3400236280,9.7888183597,-0.0376892090,0.0654602051,0.0983072917,-0.0003906250,0.0008680556
558384.3500236280,9.7891235355,-0.0375366211,0.0650024414,0.0990342882,-0.0003906250,0.0008572049
558384.3600236280,9.7885131839,-0.0378417969,0.0650024414,0.0999348958,-0.0003906250,0.0008138021
558384.3700236280,9.7885131839,-0.0375366211,0.0653076172,0.1010416667,-0.0004123264,0.0008355035
558384.3800236280,9.7895812991,-0.0363159180,0.0639343262,0.1015190972,-0.0004014757,0.0008572049
558384.3900236280,9.7894287113,-0.0376892090,0.0654602051,0.1024848090,-0.0003689236,0.0008463542
558384.4000236280,9.7886657718,-0.0370788574,0.0660705566,0.1036458333,-0.0004231771,0.0008789062
558384.4100236280,9.7889709476,-0.0375366211,0.0643920898,0.1042317708,-0.0004123264,0.0008680556
558384.4200236280,9.7900390628,-0.0375366211,0.0648498535,0.1054361979,-0.0004123264,0.0008680556
558384.4300236281,9.7880554202,-0.0363159180,0.0646972656,0.1062391493,-0.0004665799,0.0008680556
558384.4400236279,9.7883605960,-0.0372314453,0.0654602051,0.1068250868,-0.0004123264,0.0009114583
558384.4500236280,9.7886657718,-0.0376892090,0.0642395020,0.1080403646,-0.0004557292,0.0009006076
558384.4600236280,9.7883605960,-0.0373840332,0.0637817383,0.1086805556,-0.0004123264,0.0008680556
558384.4700236280,9.7877502445,-0.0361633301,0.0650024414,0.1093750000,-0.0004665799,0.0009440104
558384.4800236280,9.7877502445,-0.0376892090,0.0657653809,0.1104166667,-0.0004557292,0.0009223090
558384.4900236280,9.7886657718,-0.0384521484,0.0640869141,0.1110460069,-0.0004557292,0.0009006076
558384.5000236280,9.7885131839,-0.0386047363,0.0648498535,0.1121853299,-0.0004340278,0.0009440104
558384.5100236280,9.7882080081,-0.0358581543,0.0643920898,0.1133246528,-0.0004448785,0.0009548611
558384.5200236280,9.7889709476,-0.0361633301,0.0648498535,0.1137803819,-0.0004340278,0.0009331597
558384.5300236280,9.7879028324,-0.0392150879,0.0650024414,0.1147894965,-0.0004882812,0.0010091146
558384.5400236280,9.7886657718,-0.0375366211,0.0653076172,0.1157877604,-0.0004665799,0.0009657118
558384.5500236280,9.7886657718,-0.0360107422,0.0648498535,0.1164930556,-0.0004665799,0.0009331597
558384.5600236279,9.7885131839,-0.0372314453,0.0651550293,0.1175347222,-0.0004448785,0.0010199653
558384.5700236280,9.7889709476,-0.0373840332,0.0654602051,0.1182834201,-0.0004557292,0.0009765625
558384.5800236280,9.7882080081,-0.0376892090,0.0651550293,0.1191406250,-0.0004774306,0.0009440104
558384.5900236280,9.7891235355,-0.0372314453,0.0650024414,0.1202256944,-0.0004991319,0.0010308160
558384.6000236280,9.7883605960,-0.0358581543,0.0642395020,0.1209201389,-0.0004991319,0.0010091146
558384.6100236280,9.7880554202,-0.0381469727,0.0646972656,0.1217773437,-0.0005208333,0.0009982639
558384.6200236280,9.7883605960,-0.0392150879,0.0650024414,0.1228624132,-0.0004882812,0.0010308160
558384.6300236280,9.7886657718,-0.0358581543,0.0646972656,0.1235026042,-0.0005099826,0.0009982639
558384.6400236280,9.7894287113,-0.0360107422,0.0646972656,0.1244357639,-0.0004882812,0.0010199653
558384.6500236280,9.7889709476,-0.0376892090,0.0642395020,0.1253580729,-0.0004882812,0.0010850694
558384.6600236280,9.7885131839,-0.0378417969,0.0651550293,0.1259874132,-0.0005208333,0.0010308160
558384.6700236280,9.7883605960,-0.0378417969,0.0656127930,0.1271592882,-0.0005316840,0.0010091146
558384.6800236281,9.7891235355,-0.0355529785,0.0642395020,0.1279079861,-0.0004991319,0.0010742187
558384.6900236279,9.7888183597,-0.0354003906,0.0648498535,0.1283420139,-0.0005425347,0.0010850694
558384.7000236280,9.7877502445,-0.0398254395,0.0646972656,0.1296332465,-0.0005208333,0.0010525174
558384.7100236280,9.7883605960,-0.0370788574,0.0637817383,0.1305338542,-0.0005099826,0.0010525174
558384.7200236280,9.7882080081,-0.0350952148,0.0656127930,0.1314887153,-0.0005208333,0.0010742187
558384.7300236280,9.7892761234,-0.0366210938,0.0656127930,0.1325086806,-0.0005099826,0.0011284722
558384.7400236280,9.7892761234,-0.0375366211,0.0646972656,0.1329752604,-0.0005208333,0.0010959201
558384.7500236280,9.7886657718,-0.0389099121,0.0636291504,0.1338975694,-0.0005425347,0.0010850694
558384.7600236280,9.7885131839,-0.0355529785,0.0651550293,0.1350260417,-0.0005316840,0.0011284722
558384.7700236280,9.7889709476,-0.0346374512,0.0657653809,0.1356336805,-0.0005642361,0.0011284722
558384.7800236280,9.7879028324,-0.0389099121,0.0648498535,0.1365668403,-0.0005533854,0.0011501736
558384.7900236280,9.7883605960,-0.0386047363,0.0640869141,0.1375434028,-0.0005642361,0.0011393229
558384.8000236280,9.7872924808,-0.0364685059,0.0646972656,0.1383029514,-0.0005533854,0.0011067708
558384.8100236279,9.7885131839,-0.0361633301,0.0650024414,0.1392469618,-0.0005859375,0.0011827257
558384.8200236280,9.7888183597,-0.0373840332,0.0653076172,0.1400499132,-0.0005642361,0.0011718750
558384.8300236280,9.7883605960,-0.0381469727,0.0643920898,0.1407660590,-0.0005642361,0.0011284722
558384.8400236280,9.7879028324,-0.0376892090,0.0636291504,0.1419813368,-0.0005750868,0.0011718750
558384.8500236280,9.7889709476,-0.0355529785,0.0648498535,0.1427083333,-0.0005533854,0.0011935764
558384.8600236280,9.7885131839,-0.0367736816,0.0663757324,0.1436631944,-0.0005859375,0.0011827257
558384.8700236280,9.7892761234,-0.0390625000,0.0645446777,0.1446614583,-0.0005859375,0.0011935764
558384.8800236280,9.7888183597,-0.0361633301,0.0634765625,0.1452907986,-0.0005642361,0.0011718750
558384.8900236280,9.7891235355,-0.0363159180,0.0653076172,0.1462782118,-0.0005750868,0.0012044271
558384.9000236280,9.7883605960,-0.0363159180,0.0654602051,0.1471245660,-0.0005967882,0.0012152778
558384.9100236290,9.7872924808,-0.0370788574,0.0648498535,0.1478081597,-0.0006401910,0.0012369792
558384.9200236290,9.7879028324,-0.0390625000,0.0634765625,0.1488281250,-0.0005859375,0.0012152778
558384.9300236290,9.7885131839,-0.0361633301,0.0642395020,0.1497829861,-0.0006184896,0.0012152778
558384.9400236290,9.7874450687,-0.0363159180,0.0659179688,0.1505208333,-0.0006076389,0.0012586806
558384.9500236290,9.7883605960,-0.0378417969,0.0656127930,0.1517035590,-0.0005967882,0.0012478299
558384.9600236290,9.7880554202,-0.0369262695,0.0634765625,0.1523437500,-0.0006293403,0.0012152778
558384.9700236290,9.7880554202,-0.0376892090,0.0645446777,0.1532009549,-0.0006184896,0.0012586806
558384.9800236290,9.7885131839,-0.0360107422,0.0643920898,0.1542100694,-0.0006076389,0.0012803819
558384.9900236290,9.7883605960,-0.0355529785,0.0654602051,0.1545355903,-0.0006293403,0.0012369792
558385.0000236291,9.7886657718,-0.0376892090,0.0643920898,0.1556098090,-0.0006184896,0.0013129340
558385.0100236289,9.7883605960,-0.0372314453,0.0636291504,0.1570421007,-0.0006401910,0.0013020833
558385.0200236290,9.7886657718,-0.0357055664,0.0646972656,0.1574435764,-0.0006184896,0.0012044271
558385.0300236290,9.7886657718,-0.0373840332,0.0654602051,0.1586046007,-0.0006618924,0.0013129340
558385.0400236290,9.7885131839,-0.0367736816,0.0646972656,0.1594401042,-0.0006184896,0.0013346354
558385.0500236290,9.7889709476,-0.0364685059,0.0630187988,0.1599826389,-0.0006510417,0.0012695312
558385.0600236290,9.7886657718,-0.0381469727,0.0643920898,0.1611111111,-0.0006076389,0.0013563368
558385.0700236290,9.7885131839,-0.0354003906,0.0659179688,0.1618923611,-0.0006618924,0.0013563368
558385.0800236290,9.7892761234,-0.0360107422,0.0657653809,0.1626844618,-0.0006510417,0.0012912326
558385.0900236290,9.7879028324,-0.0375366211,0.0633239746,0.1638129340,-0.0006727431,0.0013563368
558385.1000236290,9.7882080081,-0.0363159180,0.0630187988,0.1644205729,-0.0006618924,0.0013780382
558385.1100236290,9.7877502445,-0.0382995605,0.0654602051,0.1653754340,-0.0006510417,0.0013020833
558385.1200236290,9.7885131839,-0.0357055664,0.0663757324,0.1664171007,-0.0006727431,0.0013671875
558385.1300236291,9.7883605960,-0.0367736816,0.0642395020,0.1669596354,-0.0006835937,0.0014105903
558385.1400236289,9.7900390628,-0.0373840332,0.0621032715,0.1680230035,-0.0006510417,0.0013454861
558385.1500236290,9.7877502445,-0.0352478027,0.0668334961,0.1689453125,-0.0007052951,0.0013780382
558385.1600236290,9.7886657718,-0.0366210938,0.0650024414,0.1696397569,-0.0006618924,0.0014214410
558385.1700236290,9.7888183597,-0.0367736816,0.0636291504,0.1707031250,-0.0007378472,0.0013563368
558385.1800236290,9.7889709476,-0.0373840332,0.0630187988,0.1714409722,-0.0006618924,0.0013563368
558385.1900236290,9.7888183597,-0.0355529785,0.0653076172,0.1722873264,-0.0007161458,0.0014431424
558385.2000236290,9.7885131839,-0.0355529785,0.0660705566,0.1734375000,-0.0006727431,0.0014105903
558385.2100236290,9.7897338870,-0.0375366211,0.0636291504,0.1740125868,-0.0007161458,0.0013888889
558385.2200236290,9.7875976566,-0.0370788574,0.0630187988,0.1749565972,-0.0006835937,0.0014322917
558385.2300236290,9.7888183597,-0.0337219238,0.0645446777,0.1756727430,-0.0007269965,0.0013997396
558385.2400236290,9.7886657718,-0.0357055664,0.0648498535,0.1754665799,-0.0006835937,0.0014322917
558385.2500236291,9.7883605960,-0.0360107422,0.0648498535,0.1750108507,-0.0007161458,0.0014539931
558385.2600236289,9.7883605960,-0.0355529785,0.0637817383,0.1744683160,-0.0007052951,0.0013997396
558385.2700236290,9.7879028324,-0.0352478027,0.0633239746,0.1741427951,-0.0007052951,0.0013888889
558385.2800236290,9.7882080081,-0.0355529785,0.0643920898,0.1740017361,-0.0007052951,0.0014539931
558385.2900236290,9.7880554202,-0.0357055664,0.0645446777,0.1739908854,-0.0007052951,0.0014322917
558385.3000236290,9.7889709476,-0.0373840332,0.0633239746,0.1740776910,-0.0006944444,0.0013888889
558385.3100236290,9.7888183597,-0.0357055664,0.0636291504,0.1741319444,-0.0006835937,0.0014105903
558385.3200236290,9.7880554202,-0.0349426270,0.0653076172,0.1741536458,-0.0006944444,0.0013997396
558385.3300236290,9.7885131839,-0.0355529785,0.0650024414,0.1742078993,-0.0007269965,0.0014431424
558385.3400236290,9.7879028324,-0.0376892090,0.0634765625,0.1742078993,-0.0006944444,0.0014322917
558385.3500236290,9.7888183597,-0.0363159180,0.0631713867,0.1742947049,-0.0007052951,0.0013780382
558385.3600236290,9.7883605960,-0.0346374512,0.0650024414,0.1742187500,-0.0006835937,0.0013888889
558385.3700236290,9.7882080081,-0.0360107422,0.0651550293,0.1742621528,-0.0007052951,0.0014648437
558385.3800236291,9.7894287113,-0.0361633301,0.0636291504,0.1742730035,-0.0007052951,0.0014214410
558385.3900236289,9.7885131839,-0.0360107422,0.0639343262,0.1742296007,-0.0006944444,0.0013888889
558385.4000236290,9.7885131839,-0.0367736816,0.0627136230,0.1742187500,-0.0006835937,0.0014539931
558385.4100236290,9.7886657718,-0.0352478027,0.0648498535,0.1742296007,-0.0007052951,0.0014214410
558385.4200236290,9.7880554202,-0.0358581543,0.0665283203,0.1742513021,-0.0007052951,0.0013888889
558385.4300236290,9.7888183597,-0.0366210938,0.0636291504,0.1742513021,-0.0007052951,0.0014648437
558385.4400236290,9.7885131839,-0.0360107422,0.0614929199,0.1742296007,-0.0006835937,0.0013888889
558385.4500236290,9.7888183597,-0.0364685059,0.0639343262,0.1742404514,-0.0007052951,0.0013997396
558385.4600236290,9.7882080081,-0.0358581543,0.0666809082,0.1742404514,-0.0007161458,0.0014431424
558385.4700236290,9.7883605960,-0.0355529785,0.0637817383,0.1742513021,-0.0006944444,0.0014214410
558385.4800236290,9.7886657718,-0.0363159180,0.0624084473,0.1742296007,-0.0006944444,0.0013997396
558385.4900236290,9.7888183597,-0.0364685059,0.0636291504,0.1743272569,-0.0006835937,0.0014322917
558385.5000236291,9.7886657718,-0.0358581543,0.0662231445,0.1743598090,-0.0007161458,0.0014214410
558385.5100236289,9.7885131839,-0.0360107422,0.0646972656,0.1743381076,-0.0007161458,0.0014431424
558385.5200236290,9.7883605960,-0.0369262695,0.0619506836,0.1743815104,-0.0006944444,0.0014539931
558385.5300236290,9.7880554202,-0.0369262695,0.0628662109,0.1743815104,-0.0007052951,0.0014214410
558385.5400236290,9.7880554202,-0.0358581543,0.0653076172,0.1743489583,-0.0006835937,0.0013888889
558385.5500236290,9.7886657718,-0.0346374512,0.0648498535,0.1743598090,-0.0007269965,0.0014214410
558385.5600236290,9.7885131839,-0.0358581543,0.0636291504,0.1743815104,-0.0007052951,0.0014322917
558385.5700236290,9.7886657718,-0.0372314453,0.0624084473,0.1743598090,-0.0006835937,0.0013997396
558385.5800236290,9.7883605960,-0.0363159180,0.0639343262,0.1743164062,-0.0006618924,0.0013997396
558385.5900236290,9.7888183597,-0.0354003906,0.0659179688,0.1743598090,-0.0007052951,0.0014322917
558385.6000236290,9.7885131839,-0.0350952148,0.0637817383,0.1743164062,-0.0007161458,0.0014322917
558385.6100236290,9.7880554202,-0.0352478027,0.0627136230,0.1743489583,-0.0006944444,0.0014214410
558385.6200236290,9.7889709476,-0.0361633301,0.0637817383,0.1743598090,-0.0006944444,0.0013997396
558385.6300236291,9.7883605960,-0.0361633301,0.0656127930,0.1743923611,-0.0007052951,0.0014322917
558385.6400236289,9.7877502445,-0.0357055664,0.0639343262,0.1744357639,-0.0007052951,0.0014214410
558385.6500236290,9.7880554202,-0.0357055664,0.0631713867,0.1743598090,-0.0006835937,0.0014322917
558385.6600236290,9.7883605960,-0.0361633301,0.0637817383,0.1743598090,-0.0006835937,0.0014431424
558385.6700236290,9.7885131839,-0.0360107422,0.0648498535,0.1743923611,-0.0006835937,0.0014214410
558385.6800236290,9.7886657718,-0.0361633301,0.0642395020,0.1743815104,-0.0006944444,0.0014214410
558385.6900236290,9.7886657718,-0.0361633301,0.0639343262,0.1743923611,-0.0007161458,0.0014322917
558385.7000236290,9.7892761234,-0.0350952148,0.0642395020,0.1744249132,-0.0006618924,0.0014322917
558385.7100236290,9.7888183597,-0.0358581543,0.0642395020,0.1744140625,-0.0007052951,0.0014214410
558385.7200236290,9.7885131839,-0.0370788574,0.0645446777,0.1742947049,-0.0007052951,0.0014322917
558385.7300236290,9.7882080081,-0.0363159180,0.0639343262,0.1743598090,-0.0007052951,0.0014214410
558385.7400236290,9.7882080081,-0.0352478027,0.0636291504,0.1743598090,-0.0006835937,0.0013888889
558385.7500236291,9.7882080081,-0.0355529785,0.0637817383,0.1743598090,-0.0006944444,0.0014431424
558385.7600236289,9.7889709476,-0.0357055664,0.0643920898,0.1744140625,-0.0007052951,0.0014431424
558385.7700236290,9.7882080081,-0.0366210938,0.0643920898,0.1744683160,-0.0007269965,0.0013997396
558385.7800236290,9.7888183597,-0.0360107422,0.0634765625,0.1744791667,-0.0007052951,0.0014431424
558385.7900236290,9.7889709476,-0.0347900391,0.0636291504,0.1744683160,-0.0006835937,0.0014322917
558385.8000236290,9.7888183597,-0.0346374512,0.0643920898,0.1744032118,-0.0006835937,0.0013997396
558385.8100236290,9.7880554202,-0.0363159180,0.0643920898,0.1743815104,-0.0007052951,0.0014539931
558385.8200236290,9.7885131839,-0.0366210938,0.0636291504,0.1743923611,-0.0006944444,0.0014214410
558385.8300236290,9.7886657718,-0.0360107422,0.0633239746,0.1743923611,-0.0006944444,0.0013780382
558385.8400236290,9.7883605960,-0.0347900391,0.0643920898,0.1744357639,-0.0006944444,0.0014431424
558385.8500236290,9.7892761234,-0.0363159180,0.0645446777,0.1743815104,-0.0007161458,0.0014648437
558385.8600236290,9.7882080081,-0.0370788574,0.0640869141,0.1743598090,-0.0007052951,0.0013997396
558385.8700236290,9.7883605960,-0.0366210938,0.0636291504,0.1743272569,-0.0006835937,0.0013888889
558385.8800236291,9.7891235355,-0.0335693359,0.0645446777,0.1744032118,-0.0006944444,0.0014322917
558385.8900236289,9.7892761234,-0.0343322754,0.0639343262,0.1744140625,-0.0007052951,0.0014214410
558385.9000236290,9.7880554202,-0.0382995605,0.0637817383,0.1744683160,-0.0006944444,0.0014431424
558385.9100236290,9.7882080081,-0.0373840332,0.0637817383,0.1744791667,-0.0007052951,0.0013997396
558385.9200236290,9.7883605960,-0.0341796875,0.0637817383,0.1744683160,-0.0006835937,0.0013780382
558385.9300236290,9.7883605960,-0.0346374512,0.0643920898,0.1744357639,-0.0006835937,0.0014539931
558385.9400236290,9.7888183597,-0.0361633301,0.0646972656,0.1743815104,-0.0006944444,0.0014539931
558385.9500236290,9.7882080081,-0.0376892090,0.0639343262,0.1744032118,-0.0006944444,0.0013888889
558385.9600236290,9.7882080081,-0.0358581543,0.0628662109,0.1744140625,-0.0006944444,0.0014214410
558385.9700236290,9.7883605960,-0.0338745117,0.0645446777,0.1744032118,-0.0006944444,0.0014431424
558385.9800236290,9.7891235355,-0.0357055664,0.0650024414,0.1744032118,-0.0006835937,0.0014322917
558385.9900236300,9.7880554202,-0.0381469727,0.0631713867,0.1743815104,-0.0007161458,0.0014322917
558386.0000236300,9.7882080081,-0.0366210938,0.0624084473,0.1743815104,-0.0007052951,0.0014214410
558386.0100236300,9.7888183597,-0.0340270996,0.0639343262,0.1747504340,-0.0006944444,0.0013888889
558386.0200236300,9.7882080081,-0.0340270996,0.0657653809,0.1744032118,-0.0006944444,0.0014431424
558386.0300236300,9.7888183597,-0.0375366211,0.0631713867,0.1744140625,-0.0007052951,0.0014648437
558386.0400236300,9.7891235355,-0.0369262695,0.0621032715,0.1743923611,-0.0006944444,0.0013671875
558386.0500236300,9.7882080081,-0.0347900391,0.0639343262,0.1743598090,-0.0006944444,0.0013997396
558386.0600236300,9.7877502445,-0.0350952148,0.0654602051,0.1743923611,-0.0007161458,0.0014756944
558386.0700236300,9.7892761234,-0.0363159180,0.0639343262,0.1744032118,-0.0006510417,0.0013997396
558386.0800236301,9.7891235355,-0.0370788574,0.0630187988,0.1744140625,-0.0006944444,0.0013671875
558386.0900236299,9.7888183597,-0.0347900391,0.0633239746,0.1744249132,-0.0006944444,0.0014648437
558386.1000236300,9.7891235355,-0.0337219238,0.0648498535,0.1744466146,-0.0006944444,0.0014322917
558386.1100236300,9.7889709476,-0.0370788574,0.0642395020,0.1744791667,-0.0007052951,0.0014214410
558386.1200236300,9.7891235355,-0.0361633301,0.0634765625,0.1744032118,-0.0006944444,0.0014431424
558386.1300236300,9.7885131839,-0.0343322754,0.0621032715,0.1743923611,-0.0007052951,0.0013997396
558386.1400236300,9.7877502445,-0.0352478027,0.0650024414,0.1744249132,-0.0006944444,0.0014431424
558386.1500236300,9.7880554202,-0.0370788574,0.0646972656,0.1744357639,-0.0006835937,0.0014322917
558386.1600236300,9.7891235355,-0.0354003906,0.0633239746,0.1744357639,-0.0006835937,0.0013671875
558386.1700236300,9.7885131839,-0.0347900391,0.0627136230,0.1743815104,-0.0006944444,0.0014214410
558386.1800236300,9.7882080081,-0.0358581543,0.0639343262,0.1744140625,-0.0007052951,0.0014756944
558386.1900236300,9.7882080081,-0.0364685059,0.0643920898,0.1744357639,-0.0007052951,0.0014214410
558386.2000236301,9.7891235355,-0.0361633301,0.0637817383,0.1744683160,-0.0007052951,0.0013780382
558386.2100236299,9.7880554202,-0.0344848633,0.0631713867,0.1744683160,-0.0006944444,0.0014322917
558386.2200236300,9.7885131839,-0.0352478027,0.0639343262,0.1745008680,-0.0006835937,0.0014214410
558386.2300236300,9.7883605960,-0.0370788574,0.0637817383,0.1744683160,-0.0007052951,0.0014539931
558386.2400236300,9.7891235355,-0.0366210938,0.0639343262,0.1743923611,-0.0006944444,0.0014214410
558386.2500236300,9.7891235355,-0.0350952148,0.0636291504,0.1744683160,-0.0006944444,0.0013888889
558386.2600236300,9.7889709476,-0.0347900391,0.0633239746,0.1744140625,-0.0006944444,0.0014214410
558386.2700236300,9.7889709476,-0.0361633301,0.0640869141,0.1743923611,-0.0006944444,0.0014431424
558386.2800236300,9.7885131839,-0.0366210938,0.0639343262,0.1744357639,-0.0006618924,0.0013997396
558386.2900236300,9.7892761234,-0.0355529785,0.0639343262,0.1744683160,-0.0006944444,0.0013997396
558386.3000236300,9.7889709476,-0.0344848633,0.0631713867,0.1744357639,-0.0007052951,0.0014431424
558386.3100236300,9.7879028324,-0.0358581543,0.0631713867,0.1744140625,-0.0007052951,0.0014322917
558386.3200236300,9.7888183597,-0.0372314453,0.0637817383,0.1744249132,-0.0006944444,0.0013997396
558386.3300236301,9.7888183597,-0.0355529785,0.0634765625,0.1744249132,-0.0007052951,0.0013997396
558386.3400236299,9.7888183597,-0.0347900391,0.0636291504,0.1744357639,-0.0006835937,0.0014214410
558386.3500236300,9.7885131839,-0.0352478027,0.0640869141,0.1744466146,-0.0006944444,0.0014431424
558386.3600236300,9.7880554202,-0.0372314453,0.0642395020,0.1744683160,-0.0007052951,0.0014431424
558386.3700236300,9.7885131839,-0.0354003906,0.0640869141,0.1744900174,-0.0006944444,0.0013888889
558386.3800236300,9.7886657718,-0.0335693359,0.0630187988,0.1744249132,-0.0006835937,0.0014214410
558386.3900236300,9.7888183597,-0.0354003906,0.0633239746,0.1744357639,-0.0007161458,0.0014648437
558386.4000236300,9.7883605960,-0.0373840332,0.0640869141,0.1744466146,-0.0006835937,0.0013997396
558386.4100236300,9.7886657718,-0.0357055664,0.0639343262,0.1744249132,-0.0007052951,0.0013780382
558386.4200236300,9.7892761234,-0.0343322754,0.0631713867,0.1744466146,-0.0006618924,0.0014539931
558386.4300236300,9.7889709476,-0.0346374512,0.0639343262,0.1744791667,-0.0006618924,0.0014214410
558386.4400236300,9.7888183597,-0.0366210938,0.0639343262,0.1744791667,-0.0007052951,0.0013997396
558386.4500236301,9.7883605960,-0.0364685059,0.0639343262,0.1744032118,-0.0006944444,0.0014322917
558386.4600236299,9.7889709476,-0.0346374512,0.0634765625,0.1743923611,-0.0006944444,0.0013997396
558386.4700236300,9.7885131839,-0.0355529785,0.0636291504,0.1744466146,-0.0006835937,0.0014214410
558386.4800236300,9.7889709476,-0.0370788574,0.0640869141,0.1744683160,-0.0007052951,0.0014431424
558386.4900236300,9.7883605960,-0.0352478027,0.0639343262,0.1745225694,-0.0007161458,0.0013780382
558386.5000236300,9.7882080081,-0.0349426270,0.0627136230,0.1745334201,-0.0006835937,0.0013997396
558386.5100236300,9.7883605960,-0.0344848633,0.0633239746,0.1745008680,-0.0006835937,0.0014539931
558386.5200236300,9.7885131839,-0.0357055664,0.0640869141,0.1744683160,-0.0006835937,0.0013888889
558386.5300236300,9.7889709476,-0.0369262695,0.0639343262,0.1744140625,-0.0006944444,0.0013780382
558386.5400236300,9.7875976566,-0.0349426270,0.0633239746,0.1744791667,-0.0007052951,0.0014214410
558386.5500236300,9.7888183597,-0.0343322754,0.0630187988,0.1744791667,-0.0006510417,0.0014214410
558386.5600236300,9.7891235355,-0.0366210938,0.0642395020,0.1744791667,-0.0006835937,0.0014214410
558386.5700236300,9.7888183597,-0.0366210938,0.0637817383,0.1745008680,-0.0007052951,0.0014214410
558386.5800236301,9.7889709476,-0.0341796875,0.0636291504,0.1744900174,-0.0006944444,0.0013888889
558386.5900236299,9.7882080081,-0.0344848633,0.0631713867,0.1744791667,-0.0007052951,0.0014431424
558386.6000236300,9.7889709476,-0.0360107422,0.0643920898,0.1744140625,-0.0006618924,0.0014431424
558386.6100236300,9.7880554202,-0.0366210938,0.0640869141,0.1744357639,-0.0007161458,0.0013780382
558386.6200236300,9.7886657718,-0.0355529785,0.0633239746,0.1744466146,-0.0006944444,0.0013997396
558386.6300236300,9.7880554202,-0.0346374512,0.0631713867,0.1744249132,-0.0007052951,0.0014539931
558386.6400236300,9.7889709476,-0.0355529785,0.0633239746,0.1744791667,-0.0006618924,0.0014214410
558386.6500236300,9.7888183597,-0.0366210938,0.0633239746,0.1744900174,-0.0006618924,0.0013997396
558386.6600236300,9.7892761234,-0.0358581543,0.0636291504,0.1745008680,-0.0006944444,0.0014322917
558386.6700236300,9.7886657718,-0.0340270996,0.0642395020,0.1744466146,-0.0007052951,0.0013997396
558386.6800236300,9.7882080081,-0.0357055664,0.0631713867,0.1744791667,-0.0006835937,0.0014322917
558386.6900236300,9.7883605960,-0.0366210938,0.0631713867,0.1745008680,-0.0006944444,0.0014539931
558386.7000236301,9.7888183597,-0.0358581543,0.0640869141,0.1744791667,-0.0006944444,0.0013780382
558386.7100236299,9.7879028324,-0.0355529785,0.0639343262,0.1744357639,-0.0007161458,0.0013888889
558386.7200236300,9.7883605960,-0.0349426270,0.0628662109,0.1744249132,-0.0006835937,0.0014648437
558386.7300236300,9.7889709476,-0.0354003906,0.0625610352,0.1744357639,-0.0006618924,0.0013888889
558386.7400236300,9.7892761234,-0.0361633301,0.0640869141,0.1744357639,-0.0006510417,0.0013997396
558386.7500236300,9.7886657718,-0.0350952148,0.0646972656,0.1745117187,-0.0006944444,0.0014431424
558386.7600236300,9.7885131839,-0.0354003906,0.0630187988,0.1745225694,-0.0006944444,0.0014214410
558386.7700236300,9.7888183597,-0.0360107422,0.0627136230,0.1745659722,-0.0006835937,0.0013997396
558386.7800236300,9.7892761234,-0.0366210938,0.0636291504,0.1745334201,-0.0006835937,0.0014431424
558386.7900236300,9.7892761234,-0.0354003906,0.0645446777,0.1746419271,-0.0006835937,0.0014105903
558386.8000236300,9.7886657718,-0.0354003906,0.0639343262,0.1746636285,-0.0006944444,0.0014105903
558386.8100236300,9.7892761234,-0.0363159180,0.0627136230,0.1745117187,-0.0006944444,0.0014322917
558386.8200236300,9.7888183597,-0.0344848633,0.0631713867,0.1745008680,-0.0006510417,0.0013888889
558386.8300236301,9.7889709476,-0.0355529785,0.0639343262,0.1744249132,-0.0006835937,0.0014214410
558386.8400236299,9.7888183597,-0.0355529785,0.0636291504,0.1744032118,-0.0006835937,0.0014431424
558386.8500236300,9.7880554202,-0.0358581543,0.0631713867,0.1743923611,-0.0007052951,0.0013997396
558386.8600236300,9.7885131839,-0.0358581543,0.0634765625,0.1744357639,-0.0006835937,0.0013997396
558386.8700236300,9.7883605960,-0.0349426270,0.0639343262,0.1744140625,-0.0006835937,0.0014322917
558386.8800236300,9.7892761234,-0.0354003906,0.0634765625,0.1744791667,-0.0007052951,0.0013888889
558386.8900236300,9.7888183597,-0.0360107422,0.0631713867,0.1744249132,-0.0006944444,0.0014214410
558386.9000236300,9.7882080081,-0.0354003906,0.0636291504,0.1745008680,-0.0006835937,0.0014539931
558386.9100236300,9.7886657718,-0.0340270996,0.0634765625,0.1745225694,-0.0007161458,0.0014214410
558386.9200236300,9.7891235355,-0.0363159180,0.0633239746,0.1744900174,-0.0006835937,0.0014214410
558386.9300236300,9.7886657718,-0.0360107422,0.0627136230,0.1745117187,-0.0007052951,0.0014214410
558386.9400236300,9.7885131839,-0.0357055664,0.0634765625,0.1744791667,-0.0006835937,0.0013888889
558386.9500236301,9.7883605960,-0.0355529785,0.0637817383,0.1744791667,-0.0006944444,0.0014322917
558386.9600236299,9.7882080081,-0.0341796875,0.0633239746,0.1744466146,-0.0006510417,0.0014322917
558386.9700236300,9.7885131839,-0.0364685059,0.0637817383,0.1744900174,-0.0006618924,0.0014214410
558386.9800236300,9.7886657718,-0.0364685059,0.0637817383,0.1744249132,-0.0006944444,0.0014322917
558386.9900236300,9.7885131839,-0.0355529785,0.0634765625,0.1744032118,-0.0006944444,0.0014214410
558387.0000236300,9.7882080081,-0.0349426270,0.0634765625,0.1744249132,-0.0007052951,0.0014214410
558387.0100236300,9.7883605960,-0.0363159180,0.0633239746,0.1746961805,-0.0006727431,0.0014322917
558387.0200236300,9.7894287113,-0.0355529785,0.0633239746,0.1744683160,-0.0006618924,0.0013888889
558387.0300236300,9.7883605960,-0.0354003906,0.0634765625,0.1744466146,-0.0006944444,0.0013888889
558387.0400236300,9.7885131839,-0.0355529785,0.0637817383,0.1744249132,-0.0006618924,0.0014539931
558387.0500236300,9.7888183597,-0.0349426270,0.0631713867,0.1744900174,-0.0007161458,0.0014214410
558387.0600236310,9.7889709476,-0.0361633301,0.0625610352,0.1744683160,-0.0006618924,0.0013997396
558387.0700236310,9.7883605960,-0.0358581543,0.0634765625,0.1744466146,-0.0007052951,0.0014214410
558387.0800236310,9.7883605960,-0.0350952148,0.0639343262,0.1745008680,-0.0007052951,0.0013997396
558387.0900236310,9.7886657718,-0.0349426270,0.0627136230,0.1745008680,-0.0006618924,0.0013997396
558387.1000236310,9.7883605960,-0.0364685059,0.0625610352,0.1745008680,-0.0006835937,0.0014431424
558387.1100236310,9.7886657718,-0.0346374512,0.0637817383,0.1744357639,-0.0006618924,0.0013888889
558387.1200236310,9.7877502445,-0.0361633301,0.0640869141,0.1744357639,-0.0006944444,0.0013997396
558387.1300236310,9.7891235355,-0.0341796875,0.0631713867,0.1744466146,-0.0006835937,0.0014322917
558387.1400236310,9.7886657718,-0.0341796875,0.0630187988,0.1744466146,-0.0006944444,0.0013997396
558387.1500236311,9.7885131839,-0.0363159180,0.0630187988,0.1744466146,-0.0006835937,0.0014322917
558387.1600236309,9.7880554202,-0.0357055664,0.0636291504,0.1744466146,-0.0006835937,0.0014214410
558387.1700236310,9.7880554202,-0.0352478027,0.0634765625,0.1744683160,-0.0006944444,0.0013997396
558387.1800236310,9.7882080081,-0.0344848633,0.0634765625,0.1744140625,-0.0006510417,0.0014322917
558387.1900236310,9.7888183597,-0.0352478027,0.0633239746,0.1744357639,-0.0006618924,0.0014322917
558387.2000236310,9.7888183597,-0.0370788574,0.0637817383,0.1744032118,-0.0006835937,0.0013997396
558387.2100236310,9.7885131839,-0.0355529785,0.0636291504,0.1744249132,-0.0006944444,0.0013780382
558387.2200236310,9.7882080081,-0.0350952148,0.0640869141,0.1744683160,-0.0006835937,0.0014214410
558387.2300236310,9.7888183597,-0.0354003906,0.0630187988,0.1744683160,-0.0006835937,0.0014431424
558387.2400236310,9.7882080081,-0.0358581543,0.0628662109,0.1744791667,-0.0006835937,0.0013997396
558387.2500236310,9.7885131839,-0.0352478027,0.0634765625,0.1744791667,-0.0006835937,0.0013997396
558387.2600236310,9.7885131839,-0.0357055664,0.0640869141,0.1744249132,-0.0006944444,0.0014539931
558387.2700236310,9.7883605960,-0.0361633301,0.0636291504,0.1744140625,-0.0006835937,0.0013888889
558387.2800236311,9.7889709476,-0.0354003906,0.0627136230,0.1744466146,-0.0006618924,0.0013780382
558387.2900236310,9.7889709476,-0.0350952148,0.0631713867,0.1744466146,-0.0006835937,0.0014431424
558387.3000236310,9.7879028324,-0.0355529785,0.0637817383,0.1744466146,-0.0006618924,0.0014322917
558387.3100236310,9.7883605960,-0.0361633301,0.0634765625,0.1745117187,-0.0006835937,0.0013997396
558387.3200236310,9.7892761234,-0.0347900391,0.0628662109,0.1744900174,-0.0006835937,0.0014214410
558387.3300236310,9.7875976566,-0.0338745117,0.0630187988,0.1744466146,-0.0007161458,0.0013997396
558387.3400236310,9.7888183597,-0.0360107422,0.0630187988,0.1744791667,-0.0006618924,0.0014431424
558387.3500236310,9.7883605960,-0.0363159180,0.0634765625,0.1744900174,-0.0007052951,0.0014214410
558387.3600236310,9.7886657718,-0.0349426270,0.0625610352,0.1744791667,-0.0006944444,0.0013888889
558387.3700236310,9.7888183597,-0.0347900391,0.0631713867,0.1744791667,-0.0006835937,0.0014431424
558387.3800236310,9.7888183597,-0.0352478027,0.0630187988,0.1744249132,-0.0006944444,0.0014322917
558387.3900236310,9.7883605960,-0.0361633301,0.0634765625,0.1744140625,-0.0006835937,0.0013888889
558387.4000236311,9.7885131839,-0.0349426270,0.0628662109,0.1744140625,-0.0006944444,0.0013997396
558387.4100236309,9.7882080081,-0.0350952148,0.0631713867,0.1744791667,-0.0006835937,0.0014322917
558387.4200236310,9.7885131839,-0.0354003906,0.0636291504,0.1744791667,-0.0006618924,0.0014214410
558387.4300236310,9.7880554202,-0.0350952148,0.0636291504,0.1744683160,-0.0006944444,0.0014214410
558387.4400236310,9.7882080081,-0.0352478027,0.0624084473,0.1744791667,-0.0006944444,0.0014322917
558387.4500236310,9.7882080081,-0.0344848633,0.0627136230,0.1744357639,-0.0006510417,0.0013997396
558387.4600236310,9.7889709476,-0.0355529785,0.0633239746,0.1744683160,-0.0006510417,0.0014214410
558387.4700236310,9.7891235355,-0.0352478027,0.0643920898,0.1744683160,-0.0006618924,0.0014322917
558387.4800236310,9.7883605960,-0.0350952148,0.0617980957,0.1745117187,-0.0006944444,0.0013997396
558387.4900236310,9.7886657718,-0.0352478027,0.0617980957,0.1745225694,-0.0006618924,0.0014214410
558387.5000236310,9.7886657718,-0.0350952148,0.0648498535,0.1745008680,-0.0006835937,0.0014431424
558387.5100236310,9.7888183597,-0.0355529785,0.0639343262,0.1744900174,-0.0006835937,0.0014214410
558387.5200236310,9.7889709476,-0.0349426270,0.0627136230,0.1744357639,-0.0007052951,0.0013997396
558387.5300236311,9.7883605960,-0.0360107422,0.0622558594,0.1744140625,-0.0006835937,0.0014214410
558387.5400236310,9.7889709476,-0.0358581543,0.0633239746,0.1743598090,-0.0006618924,0.0014214410
558387.5500236310,9.7885131839,-0.0355529785,0.0642395020,0.1744466146,-0.0007052951,0.0013997396
558387.5600236310,9.7885131839,-0.0355529785,0.0631713867,0.1744791667,-0.0006835937,0.0014214410
558387.5700236310,9.7883605960,-0.0347900391,0.0624084473,0.1745117187,-0.0006944444,0.0014431424
558387.5800236310,9.7885131839,-0.0357055664,0.0631713867,0.1745334201,-0.0006835937,0.0013997396
558387.5900236310,9.7891235355,-0.0354003906,0.0639343262,0.1745334201,-0.0006618924,0.0013997396
558387.6000236310,9.7888183597,-0.0347900391,0.0636291504,0.1745117187,-0.0006944444,0.0014214410
558387.6100236310,9.7886657718,-0.0352478027,0.0619506836,0.1744900174,-0.0007052951,0.0013997396
558387.6200236310,9.7882080081,-0.0354003906,0.0624084473,0.1744357639,-0.0006835937,0.0014214410
558387.6300236310,9.7886657718,-0.0355529785,0.0636291504,0.1745008680,-0.0006835937,0.0014322917
558387.6400236310,9.7885131839,-0.0358581543,0.0640869141,0.1744683160,-0.0006618924,0.0013997396
558387.6500236311,9.7885131839,-0.0347900391,0.0631713867,0.1744683160,-0.0006944444,0.0014214410
558387.6600236309,9.7885131839,-0.0354003906,0.0625610352,0.1744683160,-0.0006835937,0.0013997396
558387.6700236310,9.7886657718,-0.0357055664,0.0630187988,0.1744249132,-0.0006618924,0.0013997396
558387.6800236310,9.7885131839,-0.0354003906,0.0634765625,0.1744683160,-0.0006835937,0.0014214410
558387.6900236310,9.7888183597,-0.0344848633,0.0636291504,0.1744249132,-0.0006835937,0.0013888889
558387.7000236310,9.7891235355,-0.0352478027,0.0619506836,0.1744466146,-0.0006944444,0.0014322917
558387.7100236310,9.7880554202,-0.0360107422,0.0630187988,0.1744466146,-0.0006618924,0.0014214410
558387.7200236310,9.7886657718,-0.0358581543,0.0637817383,0.1744900174,-0.0006835937,0.0013888889
558387.7300236310,9.7875976566,-0.0344848633,0.0634765625,0.1744900174,-0.0006835937,0.0013888889
558387.7400236310,9.7879028324,-0.0343322754,0.0627136230,0.1745334201,-0.0006618924,0.0014214410
558387.7500236310,9.7880554202,-0.0358581543,0.0628662109,0.1745659722,-0.0006944444,0.0014214410
558387.7600236310,9.7883605960,-0.0366210938,0.0628662109,0.1745008680,-0.0006618924,0.0014322917
558387.7700236310,9.7885131839,-0.0346374512,0.0636291504,0.1745225694,-0.0006618924,0.0013888889
558387.7800236311,9.7888183597,-0.0341796875,0.0633239746,0.1745008680,-0.0006944444,0.0014214410
558387.7900236310,9.7883605960,-0.0361633301,0.0622558594,0.1745008680,-0.0006618924,0.0014322917
558387.8000236310,9.7880554202,-0.0354003906,0.0625610352,0.1744683160,-0.0006835937,0.0013780382
558387.8100236310,9.7885131839,-0.0346374512,0.0640869141,0.1744357639,-0.0006835937,0.0013888889
558387.8200236310,9.7888183597,-0.0347900391,0.0630187988,0.1744900174,-0.0006835937,0.0014431424
558387.8300236310,9.7892761234,-0.0361633301,0.0619506836,0.1744357639,-0.0006835937,0.0014214410
558387.8400236310,9.7875976566,-0.0355529785,0.0630187988,0.1744466146,-0.0006510417,0.0013780382
558387.8500236310,9.7888183597,-0.0357055664,0.0636291504,0.1744249132,-0.0007052951,0.0014322917
558387.8600236310,9.7889709476,-0.0334167480,0.0637817383,0.1744683160,-0.0006618924,0.0013888889
558387.8700236310,9.7885131839,-0.0357055664,0.0625610352,0.1744249132,-0.0006835937,0.0013997396
558387.8800236310,9.7880554202,-0.0370788574,0.0621032715,0.1745225694,-0.0006835937,0.0014539931
558387.8900236310,9.7891235355,-0.0334167480,0.0630187988,0.1745225694,-0.0006618924,0.0013780382
558387.9000236311,9.7891235355,-0.0340270996,0.0642395020,0.1744791667,-0.0006510417,0.0014322917
558387.9100236309,9.7880554202,-0.0376892090,0.0627136230,0.1745008680,-0.0006944444,0.0014865451
558387.9200236310,9.7891235355,-0.0355529785,0.0617980957,0.1744683160,-0.0006510417,0.0013346354
558387.9300236310,9.7885131839,-0.0338745117,0.0636291504,0.1744683160,-0.0006835937,0.0013563368
558387.9400236310,9.7883605960,-0.0352478027,0.0642395020,0.1744140625,-0.0006835937,0.0015190972
558387.9500236310,9.7895812991,-0.0357055664,0.0624084473,0.1744249132,-0.0006618924,0.0013888889
558387.9600236310,9.7888183597,-0.0370788574,0.0617980957,0.1744357639,-0.0006618924,0.0013346354
558387.9700236310,9.7883605960,-0.0349426270,0.0636291504,0.1744032118,-0.0006401910,0.0014756944
558387.9800236310,9.7889709476,-0.0331115723,0.0639343262,0.1743923611,-0.0006944444,0.0014214410
558387.9900236310,9.7889709476,-0.0363159180,0.0631713867,0.1744683160,-0.0006618924,0.0013671875
558388.0000236310,9.7886657718,-0.0369262695,0.0624084473,0.1745008680,-0.0006835937,0.0014431424
558388.0100236310,9.7882080081,-0.0335693359,0.0624084473,0.1747721354,-0.0006835937,0.0014105903
558388.0200236310,9.7889709476,-0.0337219238,0.0630187988,0.1745225694,-0.0006835937,0.0013780382
558388.0300236311,9.7879028324,-0.0364685059,0.0636291504,0.1745551215,-0.0006944444,0.0014756944
558388.0400236310,9.7897338870,-0.0355529785,0.0628662109,0.1745225694,-0.0006510417,0.0014214410
558388.0500236310,9.7885131839,-0.0341796875,0.0621032715,0.1744791667,-0.0006944444,0.0013454861
558388.0600236310,9.7882080081,-0.0352478027,0.0622558594,0.1744357639,-0.0006835937,0.0014756944
558388.0700236310,9.7886657718,-0.0350952148,0.0628662109,0.1744683160,-0.0006835937,0.0014431424
558388.0800236310,9.7888183597,-0.0358581543,0.0634765625,0.1744249132,-0.0006618924,0.0013454861
558388.0900236310,9.7894287113,-0.0366210938,0.0628662109,0.1744140625,-0.0006835937,0.0014431424
558388.1000236310,9.7888183597,-0.0329589844,0.0625610352,0.1744249132,-0.0006835937,0.0014431424
558388.1100236310,9.7888183597,-0.0350952148,0.0625610352,0.1743923611,-0.0006944444,0.0013563368
558388.1200236310,9.7882080081,-0.0369262695,0.0625610352,0.1744140625,-0.0006618924,0.0014431424
558388.1300236320,9.7891235355,-0.0350952148,0.0630187988,0.1744140625,-0.0006835937,0.0013888889
558388.1400236320,9.7888183597,-0.0343322754,0.0631713867,0.1744791667,-0.0006835937,0.0013671875
558388.1500236320,9.7885131839,-0.0355529785,0.0627136230,0.1745008680,-0.0006835937,0.0014539931
558388.1600236320,9.7885131839,-0.0364685059,0.0622558594,0.1745551215,-0.0006618924,0.0014431424
558388.1700236320,9.7895812991,-0.0340270996,0.0628662109,0.1745334201,-0.0006944444,0.0013563368
558388.1800236320,9.7880554202,-0.0358581543,0.0636291504,0.1745225694,-0.0006510417,0.0014539931
558388.1900236320,9.7885131839,-0.0357055664,0.0625610352,0.1745008680,-0.0006944444,0.0014431424
558388.2000236320,9.7888183597,-0.0341796875,0.0637817383,0.1744466146,-0.0006618924,0.0013346354
558388.2100236320,9.7885131839,-0.0373840332,0.0628662109,0.1745008680,-0.0006835937,0.0014539931
558388.2200236320,9.7891235355,-0.0341796875,0.0622558594,0.1744791667,-0.0006618924,0.0014431424
558388.2300236319,9.7891235355,-0.0349426270,0.0627136230,0.1745117187,-0.0006618924,0.0013346354
558388.2400236320,9.7880554202,-0.0360107422,0.0634765625,0.1745008680,-0.0006835937,0.0014539931
558388.2500236320,9.7889709476,-0.0347900391,0.0625610352,0.1744683160,-0.0006510417,0.0013997396
558388.2600236320,9.7891235355,-0.0347900391,0.0622558594,0.1744466146,-0.0006510417,0.0013563368
558388.2700236320,9.7889709476,-0.0363159180,0.0633239746,0.1744900174,-0.0006510417,0.0014322917
558388.2800236320,9.7888183597,-0.0347900391,0.0633239746,0.1744683160,-0.0006944444,0.0014322917
558388.2900236320,9.7885131839,-0.0350952148,0.0625610352,0.1744683160,-0.0006835937,0.0013563368
558388.3000236320,9.7882080081,-0.0366210938,0.0625610352,0.1745225694,-0.0006835937,0.0014648437
558388.3100236320,9.7885131839,-0.0350952148,0.0628662109,0.1744900174,-0.0006835937,0.0013997396
558388.3200236320,9.7892761234,-0.0347900391,0.0631713867,0.1744683160,-0.0006618924,0.0013671875
558388.3300236320,9.7882080081,-0.0360107422,0.0627136230,0.1744683160,-0.0006944444,0.0014322917
558388.3400236320,9.7889709476,-0.0355529785,0.0624084473,0.1744900174,-0.0006510417,0.0014322917
558388.3500236321,9.7886657718,-0.0352478027,0.0622558594,0.1744357639,-0.0006618924,0.0013563368
558388.3600236319,9.7886657718,-0.0355529785,0.0631713867,0.1744683160,-0.0006835937,0.0014539931
558388.3700236320,9.7886657718,-0.0343322754,0.0628662109,0.1744466146,-0.0006835937,0.0014431424
558388.3800236320,9.7882080081,-0.0352478027,0.0628662109,0.1744683160,-0.0006835937,0.0013563368
558388.3900236320,9.7886657718,-0.0361633301,0.0630187988,0.1744683160,-0.0006835937,0.0014431424
558388.4000236320,9.7889709476,-0.0341796875,0.0624084473,0.1744791667,-0.0006510417,0.0014214410
558388.4100236320,9.7892761234,-0.0349426270,0.0625610352,0.1744249132,-0.0006835937,0.0013671875
558388.4200236320,9.7883605960,-0.0361633301,0.0630187988,0.1744791667,-0.0006618924,0.0014431424
558388.4300236320,9.7882080081,-0.0347900391,0.0625610352,0.1745117187,-0.0006835937,0.0014322917
558388.4400236320,9.7891235355,-0.0340270996,0.0627136230,0.1745551215,-0.0006835937,0.0013671875
558388.4500236320,9.7885131839,-0.0357055664,0.0624084473,0.1745117187,-0.0006510417,0.0014539931
558388.4600236320,9.7882080081,-0.0363159180,0.0616455078,0.1745117187,-0.0006835937,0.0014214410
558388.4700236320,9.7879028324,-0.0344848633,0.0634765625,0.1744900174,-0.0006618924,0.0013454861
558388.4800236319,9.7885131839,-0.0364685059,0.0631713867,0.1744791667,-0.0006618924,0.0014648437
558388.4900236320,9.7888183597,-0.0347900391,0.0622558594,0.1744357639,-0.0006944444,0.0014431424
558388.5000236320,9.7885131839,-0.0352478027,0.0622558594,0.1744249132,-0.0006510417,0.0013563368
558388.5100236320,9.7885131839,-0.0366210938,0.0628662109,0.1744357639,-0.0006618924,0.0014539931
558388.5200236320,9.7885131839,-0.0349426270,0.0628662109,0.1743923611,-0.0006618924,0.0014214410
558388.5300236320,9.7886657718,-0.0358581543,0.0616455078,0.1744357639,-0.0006618924,0.0013671875
558388.5400236320,9.7891235355,-0.0352478027,0.0622558594,0.1744357639,-0.0006510417,0.0014539931
558388.5500236320,9.7883605960,-0.0338745117,0.0631713867,0.1744466146,-0.0006618924,0.0014322917
558388.5600236320,9.7886657718,-0.0357055664,0.0631713867,0.1744140625,-0.0006835937,0.0013671875
558388.5700236320,9.7880554202,-0.0361633301,0.0624084473,0.1744683160,-0.0006618924,0.0014322917
558388.5800236320,9.7886657718,-0.0354003906,0.0621032715,0.1745008680,-0.0006835937,0.0013997396
558388.5900236320,9.7883605960,-0.0344848633,0.0625610352,0.1744683160,-0.0006510417,0.0013563368
558388.6000236321,9.7877502445,-0.0363159180,0.0627136230,0.1745008680,-0.0006835937,0.0014431424
558388.6100236319,9.7889709476,-0.0347900391,0.0624084473,0.1745117187,-0.0006944444,0.0014322917
558388.6200236320,9.7883605960,-0.0355529785,0.0625610352,0.1745225694,-0.0006618924,0.0013563368
558388.6300236320,9.7888183597,-0.0357055664,0.0625610352,0.1745117187,-0.0006618924,0.0014539931
558388.6400236320,9.7888183597,-0.0337219238,0.0630187988,0.1744357639,-0.0006618924,0.0013888889
558388.6500236320,9.7883605960,-0.0357055664,0.0627136230,0.1744249132,-0.0006835937,0.0013780382
558388.6600236320,9.7886657718,-0.0370788574,0.0621032715,0.1744900174,-0.0006618924,0.0014431424
558388.6700236320,9.7886657718,-0.0349426270,0.0630187988,0.1744683160,-0.0006944444,0.0013997396
558388.6800236320,9.7883605960,-0.0344848633,0.0625610352,0.1744683160,-0.0006510417,0.0013780382
558388.6900236320,9.7886657718,-0.0354003906,0.0622558594,0.1744683160,-0.0006835937,0.0014756944
558388.7000236320,9.7885131839,-0.0355529785,0.0625610352,0.1744357639,-0.0006618924,0.0013997396
558388.7100236320,9.7886657718,-0.0360107422,0.0631713867,0.1744249132,-0.0006510417,0.0013563368
558388.7200236320,9.7886657718,-0.0354003906,0.0628662109,0.1744791667,-0.0006510417,0.0014539931
558388.7300236319,9.7883605960,-0.0340270996,0.0625610352,0.1744683160,-0.0006835937,0.0013997396
558388.7400236320,9.7889709476,-0.0363159180,0.0621032715,0.1744791667,-0.0006618924,0.0013671875
558388.7500236320,9.7880554202,-0.0357055664,0.0628662109,0.1744791667,-0.0006618924,0.0014322917
558388.7600236320,9.7892761234,-0.0346374512,0.0627136230,0.1744900174,-0.0006401910,0.0013888889
558388.7700236320,9.7880554202,-0.0343322754,0.0625610352,0.1744791667,-0.0006944444,0.0013888889
558388.7800236320,9.7888183597,-0.0360107422,0.0619506836,0.1743381076,-0.0006510417,0.0014322917
558388.7900236320,9.7885131839,-0.0350952148,0.0625610352,0.1743923611,-0.0006944444,0.0013780382
558388.8000236320,9.7886657718,-0.0358581543,0.0630187988,0.1744140625,-0.0006835937,0.0013780382
558388.8100236320,9.7888183597,-0.0347900391,0.0621032715,0.1744249132,-0.0006835937,0.0014322917
558388.8200236320,9.7885131839,-0.0347900391,0.0625610352,0.1744683160,-0.0006618924,0.0014322917
558388.8300236320,9.7892761234,-0.0361633301,0.0622558594,0.1744466146,-0.0006618924,0.0013780382
558388.8400236320,9.7885131839,-0.0364685059,0.0625610352,0.1745008680,-0.0006835937,0.0014322917
558388.8500236321,9.7889709476,-0.0338745117,0.0631713867,0.1744900174,-0.0006510417,0.0013780382
558388.8600236319,9.7888183597,-0.0341796875,0.0624084473,0.1745225694,-0.0006835937,0.0013888889
558388.8700236320,9.7888183597,-0.0361633301,0.0619506836,0.1745334201,-0.0006944444,0.0014431424
558388.8800236320,9.7883605960,-0.0361633301,0.0621032715,0.1745008680,-0.0006401910,0.0013997396
558388.8900236320,9.7888183597,-0.0354003906,0.0627136230,0.1745117187,-0.0006618924,0.0013780382
558388.9000236320,9.7885131839,-0.0344848633,0.0625610352,0.1744900174,-0.0006401910,0.0014214410
558388.9100236320,9.7883605960,-0.0358581543,0.0619506836,0.1744683160,-0.0006944444,0.0014322917
558388.9200236320,9.7886657718,-0.0355529785,0.0624084473,0.1743923611,-0.0006510417,0.0013780382
558388.9300236320,9.7889709476,-0.0349426270,0.0633239746,0.1744032118,-0.0006510417,0.0014214410
558388.9400236320,9.7888183597,-0.0358581543,0.0621032715,0.1744032118,-0.0006835937,0.0014214410
558388.9500236320,9.7891235355,-0.0340270996,0.0628662109,0.1744357639,-0.0006510417,0.0013780382
558388.9600236320,9.7879028324,-0.0360107422,0.0617980957,0.1744683160,-0.0006944444,0.0014214410
558388.9700236320,9.7889709476,-0.0360107422,0.0624084473,0.1744900174,-0.0006293403,0.0014214410
558388.9800236319,9.7885131839,-0.0347900391,0.0627136230,0.1745768229,-0.0006510417,0.0013563368
558388.9900236320,9.7885131839,-0.0346374512,0.0631713867,0.1745225694,-0.0006510417,0.0013888889
558389.0000236320,9.7889709476,-0.0340270996,0.0627136230,0.1744791667,-0.0006835937,0.0014322917
558389.0100236320,9.7875976566,-0.0357055664,0.0616455078,0.1747829861,-0.0006835937,0.0013888889
558389.0200236320,9.7885131839,-0.0364685059,0.0622558594,0.1745117187,-0.0006401910,0.0013997396
558389.0300236320,9.7886657718,-0.0347900391,0.0633239746,0.1745117187,-0.0006835937,0.0014214410
558389.0400236320,9.7888183597,-0.0349426270,0.0622558594,0.1744900174,-0.0006510417,0.0013780382
558389.0500236320,9.7886657718,-0.0357055664,0.0619506836,0.1744683160,-0.0006618924,0.0013997396
558389.0600236320,9.7886657718,-0.0347900391,0.0628662109,0.1744357639,-0.0006618924,0.0013888889
558389.0700236320,9.7883605960,-0.0349426270,0.0630187988,0.1744466146,-0.0006618924,0.0013997396
558389.0800236320,9.7885131839,-0.0358581543,0.0617980957,0.1744032118,-0.0006835937,0.0014214410
558389.0900236320,9.7882080081,-0.0355529785,0.0613403320,0.1744357639,-0.0006401910,0.0013997396
558389.1000236321,9.7883605960,-0.0352478027,0.0628662109,0.1744791667,-0.0006618924,0.0013888889
558389.1100236319,9.7885131839,-0.0347900391,0.0625610352,0.1744466146,-0.0006618924,0.0013997396
558389.1200236320,9.7891235355,-0.0346374512,0.0625610352,0.1744683160,-0.0006510417,0.0013888889
558389.1300236320,9.7875976566,-0.0355529785,0.0610351563,0.1745008680,-0.0006835937,0.0013997396
558389.1400236320,9.7885131839,-0.0355529785,0.0619506836,0.1745225694,-0.0006401910,0.0014214410
558389.1500236320,9.7882080081,-0.0340270996,0.0628662109,0.1745551215,-0.0006944444,0.0013888889
558389.1600236320,9.7888183597,-0.0357055664,0.0630187988,0.1745551215,-0.0006510417,0.0014431424
558389.1700236320,9.7889709476,-0.0352478027,0.0616455078,0.1745659722,-0.0006618924,0.0013997396
558389.1800236320,9.7879028324,-0.0354003906,0.0614929199,0.1745334201,-0.0006510417,0.0013563368
558389.1900236320,9.7882080081,-0.0349426270,0.0628662109,0.1744791667,-0.0006510417,0.0014214410
558389.2000236320,9.7877502445,-0.0347900391,0.0639343262,0.1744357639,-0.0006944444,0.0014214410
558389.2100236330,9.7891235355,-0.0358581543,0.0619506836,0.1744140625,-0.0006510417,0.0013888889
558389.2200236330,9.7886657718,-0.0358581543,0.0611877441,0.1744032118,-0.0006510417,0.0013997396
558389.2300236330,9.7885131839,-0.0352478027,0.0630187988,0.1744791667,-0.0006510417,0.0013997396
558389.2400236330,9.7885131839,-0.0341796875,0.0633239746,0.1744683160,-0.0006401910,0.0013888889
558389.2500236330,9.7889709476,-0.0355529785,0.0624084473,0.1744466146,-0.0006944444,0.0014214410
558389.2600236330,9.7889709476,-0.0358581543,0.0610351563,0.1744791667,-0.0006510417,0.0013997396
558389.2700236330,9.7889709476,-0.0349426270,0.0617980957,0.1744900174,-0.0006944444,0.0013563368
558389.2800236330,9.7882080081,-0.0347900391,0.0634765625,0.1744900174,-0.0006401910,0.0014322917
558389.2900236330,9.7886657718,-0.0352478027,0.0624084473,0.1744791667,-0.0006618924,0.0014322917
558389.3000236331,9.7889709476,-0.0360107422,0.0616455078,0.1745551215,-0.0006618924,0.0013671875
558389.3100236329,9.7883605960,-0.0361633301,0.0616455078,0.1745225694,-0.0006510417,0.0013997396
558389.3200236330,9.7885131839,-0.0341796875,0.0627136230,0.1744357639,-0.0006401910,0.0013997396
558389.3300236330,9.7886657718,-0.0341796875,0.0633239746,0.1744357639,-0.0006618924,0.0013780382
558389.3400236330,9.7883605960,-0.0364685059,0.0624084473,0.1743598090,-0.0006618924,0.0014214410
558389.3500236330,9.7886657718,-0.0363159180,0.0610351563,0.1743598090,-0.0006618924,0.0014214410
558389.3600236330,9.7888183597,-0.0337219238,0.0619506836,0.1744032118,-0.0006510417,0.0013454861
558389.3700236330,9.7872924808,-0.0355529785,0.0622558594,0.1744683160,-0.0006944444,0.0014322917
558389.3800236330,9.7885131839,-0.0355529785,0.0625610352,0.1744791667,-0.0006293403,0.0014214410
558389.3900236330,9.7891235355,-0.0357055664,0.0614929199,0.1744900174,-0.0006835937,0.0013346354
558389.4000236330,9.7891235355,-0.0344848633,0.0621032715,0.1744683160,-0.0006401910,0.0013888889
558389.4100236330,9.7886657718,-0.0341796875,0.0628662109,0.1744900174,-0.0006944444,0.0014431424
558389.4200236331,9.7883605960,-0.0364685059,0.0625610352,0.1745117187,-0.0006618924,0.0013888889
558389.4300236329,9.7892761234,-0.0357055664,0.0611877441,0.1745008680,-0.0006510417,0.0013563368
558389.4400236330,9.7886657718,-0.0341796875,0.0621032715,0.1744900174,-0.0006618924,0.0013997396
558389.4500236330,9.7886657718,-0.0350952148,0.0631713867,0.1744357639,-0.0006510417,0.0014322917
558389.4600236330,9.7883605960,-0.0372314453,0.0627136230,0.1744466146,-0.0006835937,0.0013780382
558389.4700236330,9.7885131839,-0.0357055664,0.0617980957,0.1744791667,-0.0006618924,0.0013888889
558389.4800236330,9.7891235355,-0.0331115723,0.0614929199,0.1745008680,-0.0006401910,0.0014214410
558389.4900236330,9.7885131839,-0.0354003906,0.0614929199,0.1744900174,-0.0006835937,0.0014214410
558389.5000236330,9.7886657718,-0.0375366211,0.0625610352,0.1744900174,-0.0006618924,0.0013997396
558389.5100236330,9.7883605960,-0.0357055664,0.0621032715,0.1744249132,-0.0006510417,0.0013563368
558389.5200236330,9.7888183597,-0.0332641602,0.0619506836,0.1744466146,-0.0006835937,0.0013888889
558389.5300236330,9.7888183597,-0.0340270996,0.0627136230,0.1744357639,-0.0006510417,0.0014322917
558389.5400236330,9.7888183597,-0.0364685059,0.0627136230,0.1744900174,-0.0006835937,0.0013997396
558389.5500236331,9.7894287113,-0.0361633301,0.0622558594,0.1745225694,-0.0006835937,0.0013671875
558389.5600236329,9.7883605960,-0.0347900391,0.0613403320,0.1745659722,-0.0006618924,0.0013997396
558389.5700236330,9.7886657718,-0.0338745117,0.0622558594,0.1745551215,-0.0006401910,0.0013780382
558389.5800236330,9.7883605960,-0.0357055664,0.0630187988,0.1744683160,-0.0006835937,0.0013888889
558389.5900236330,9.7885131839,-0.0364685059,0.0630187988,0.1744249132,-0.0006835937,0.0014214410
558389.6000236330,9.7877502445,-0.0350952148,0.0619506836,0.1744032118,-0.0006510417,0.0013780382
558389.6100236330,9.7885131839,-0.0340270996,0.0610351563,0.1743815104,-0.0006835937,0.0013997396
558389.6200236330,9.7888183597,-0.0346374512,0.0627136230,0.1744140625,-0.0006401910,0.0014322917
558389.6300236330,9.7888183597,-0.0363159180,0.0631713867,0.1744466146,-0.0006618924,0.0013888889
558389.6400236330,9.7879028324,-0.0366210938,0.0613403320,0.1744791667,-0.0006835937,0.0013780382
558389.6500236330,9.7879028324,-0.0347900391,0.0614929199,0.1744140625,-0.0006401910,0.0013888889
558389.6600236330,9.7885131839,-0.0332641602,0.0628662109,0.1744466146,-0.0006510417,0.0013997396
558389.6700236331,9.7883605960,-0.0357055664,0.0628662109,0.1744249132,-0.0006510417,0.0014214410
558389.6800236329,9.7889709476,-0.0366210938,0.0614929199,0.1744900174,-0.0006944444,0.0013888889
558389.6900236330,9.7885131839,-0.0341796875,0.0622558594,0.1745334201,-0.0006401910,0.0013888889
558389.7000236330,9.7883605960,-0.0344848633,0.0619506836,0.1745659722,-0.0006401910,0.0014214410
558389.7100236330,9.7885131839,-0.0354003906,0.0624084473,0.1745334201,-0.0006618924,0.0013888889
558389.7200236330,9.7885131839,-0.0358581543,0.0625610352,0.1744900174,-0.0006510417,0.0013780382
558389.7300236330,9.7877502445,-0.0364685059,0.0619506836,0.1744249132,-0.0006618924,0.0013997396
558389.7400236330,9.7885131839,-0.0349426270,0.0613403320,0.1744683160,-0.0006510417,0.0013997396
558389.7500236330,9.7894287113,-0.0332641602,0.0625610352,0.1744357639,-0.0006618924,0.0013671875
558389.7600236330,9.7879028324,-0.0363159180,0.0625610352,0.1744683160,-0.0006835937,0.0014539931
558389.7700236330,9.7880554202,-0.0372314453,0.0617980957,0.1744357639,-0.0006835937,0.0013997396
558389.7800236330,9.7889709476,-0.0354003906,0.0605773926,0.1743923611,-0.0006510417,0.0013129340
558389.7900236330,9.7880554202,-0.0343322754,0.0625610352,0.1744140625,-0.0006401910,0.0014322917
558389.8000236331,9.7889709476,-0.0341796875,0.0627136230,0.1743598090,-0.0006618924,0.0014322917
558389.8100236329,9.7877502445,-0.0369262695,0.0622558594,0.1744032118,-0.0006618924,0.0013563368
558389.8200236330,9.7879028324,-0.0364685059,0.0616455078,0.1745117187,-0.0006510417,0.0014214410
558389.8300236330,9.7883605960,-0.0332641602,0.0613403320,0.1745008680,-0.0006401910,0.0014214410
558389.8400236330,9.7888183597,-0.0338745117,0.0627136230,0.1745117187,-0.0006293403,0.0013780382
558389.8500236330,9.7880554202,-0.0369262695,0.0619506836,0.1744791667,-0.0006618924,0.0013997396
558389.8600236330,9.7889709476,-0.0352478027,0.0621032715,0.1744791667,-0.0006835937,0.0013780382
558389.8700236330,9.7886657718,-0.0338745117,0.0613403320,0.1744357639,-0.0006510417,0.0013563368
558389.8800236330,9.7877502445,-0.0375366211,0.0616455078,0.1744683160,-0.0006510417,0.0014648437
558389.8900236330,9.7888183597,-0.0346374512,0.0631713867,0.1744466146,-0.0006401910,0.0013671875
558389.9000236330,9.7879028324,-0.0344848633,0.0624084473,0.1744140625,-0.0006618924,0.0013563368
558389.9100236330,9.7886657718,-0.0357055664,0.0605773926,0.1744466146,-0.0006510417,0.0014539931
558389.9200236331,9.7886657718,-0.0349426270,0.0617980957,0.1744357639,-0.0006401910,0.0013780382
558389.9300236329,9.7888183597,-0.0364685059,0.0627136230,0.1744900174,-0.0006510417,0.0013563368
558389.9400236330,9.7883605960,-0.0337219238,0.0628662109,0.1744357639,-0.0006835937,0.0014322917
558389.9500236330,9.7877502445,-0.0349426270,0.0610351563,0.1744683160,-0.0006835937,0.0014214410
558389.9600236330,9.7894287113,-0.0366210938,0.0611877441,0.1745117187,-0.0006401910,0.0013563368
558389.9700236330,9.7886657718,-0.0352478027,0.0627136230,0.1745334201,-0.0006510417,0.0013888889
558389.9800236330,9.7894287113,-0.0343322754,0.0631713867,0.1744791667,-0.0006401910,0.0013997396
558389.9900236330,9.7880554202,-0.0344848633,0.0613403320,0.1744683160,-0.0006835937,0.0013454861
558390.0000236330,9.7880554202,-0.0372314453,0.0605773926,0.1744791667,-0.0006401910,0.0014214410
558390.0100236330,9.7895812991,-0.0350952148,0.0619506836,0.1747829861,-0.0006510417,0.0014105903
558390.0200236330,9.7889709476,-0.0343322754,0.0630187988,0.1745117187,-0.0006618924,0.0013454861
558390.0300236330,9.7888183597,-0.0360107422,0.0622558594,0.1745117187,-0.0006618924,0.0014214410
558390.0400236330,9.7880554202,-0.0358581543,0.0607299805,0.1744791667,-0.0006618924,0.0013997396
558390.0500236331,9.7886657718,-0.0340270996,0.0611877441,0.1744357639,-0.0006510417,0.0013020833
558390.0600236329,9.7888183597,-0.0358581543,0.0628662109,0.1744357639,-0.0006401910,0.0014431424
558390.0700236330,9.7895812991,-0.0341796875,0.0631713867,0.1744357639,-0.0006618924,0.0014214410
558390.0800236330,9.7886657718,-0.0360107422,0.0607299805,0.1743923611,-0.0006510417,0.0013346354
558390.0900236330,9.7883605960,-0.0355529785,0.0607299805,0.1744357639,-0.0006401910,0.0013997396
558390.1000236330,9.7888183597,-0.0338745117,0.0622558594,0.1743923611,-0.0006510417,0.0014214410
558390.1100236330,9.7888183597,-0.0354003906,0.0634765625,0.1744466146,-0.0006618924,0.0013563368
558390.1200236330,9.7883605960,-0.0366210938,0.0617980957,0.1744791667,-0.0006835937,0.0013888889
558390.1300236330,9.7880554202,-0.0347900391,0.0605773926,0.1744466146,-0.0006401910,0.0014214410
558390.1400236330,9.7888183597,-0.0340270996,0.0631713867,0.1745008680,-0.0006618924,0.0013671875
558390.1500236330,9.7889709476,-0.0352478027,0.0633239746,0.1745551215,-0.0006510417,0.0014431424
558390.1600236330,9.7883605960,-0.0364685059,0.0622558594,0.1745225694,-0.0006835937,0.0014214410
558390.1700236331,9.7883605960,-0.0361633301,0.0599670410,0.1745008680,-0.0006835937,0.0013346354
558390.1800236329,9.7883605960,-0.0338745117,0.0605773926,0.1744900174,-0.0006401910,0.0013780382
558390.1900236330,9.7885131839,-0.0349426270,0.0628662109,0.1745008680,-0.0006618924,0.0014431424
558390.2000236330,9.7888183597,-0.0366210938,0.0624084473,0.1744900174,-0.0006293403,0.0013780382
558390.2100236330,9.7888183597,-0.0357055664,0.0607299805,0.1744791667,-0.0006835937,0.0013454861
558390.2200236330,9.7882080081,-0.0338745117,0.0611877441,0.1744357639,-0.0006510417,0.0014214410
558390.2300236330,9.7882080081,-0.0341796875,0.0624084473,0.1744357639,-0.0006510417,0.0013888889
558390.2400236330,9.7892761234,-0.0370788574,0.0625610352,0.1744249132,-0.0006618924,0.0013780382
558390.2500236330,9.7889709476,-0.0354003906,0.0616455078,0.1744791667,-0.0006510417,0.0013888889
558390.2600236330,9.7885131839,-0.0331115723,0.0604248047,0.1744140625,-0.0006618924,0.0013780382
558390.2700236330,9.7888183597,-0.0349426270,0.0613403320,0.1744357639,-0.0006401910,0.0014214410
558390.2800236340,9.7882080081,-0.0366210938,0.0631713867,0.1744466146,-0.0006618924,0.0014322917
558390.2900236340,9.7888183597,-0.0364685059,0.0622558594,0.1744683160,-0.0006835937,0.0013780382
558390.3000236340,9.7883605960,-0.0346374512,0.0601196289,0.1744900174,-0.0006510417,0.0013671875
558390.3100236340,9.7880554202,-0.0341796875,0.0608825684,0.1744466146,-0.0006510417,0.0014322917
558390.3200236340,9.7889709476,-0.0346374512,0.0627136230,0.1744466146,-0.0006401910,0.0013888889
558390.3300236340,9.7889709476,-0.0372314453,0.0630187988,0.1744683160,-0.0006944444,0.0013671875
558390.3400236340,9.7889709476,-0.0349426270,0.0604248047,0.1744249132,-0.0006510417,0.0013888889
558390.3500236340,9.7886657718,-0.0337219238,0.0601196289,0.1744900174,-0.0006835937,0.0013780382
558390.3600236340,9.7891235355,-0.0346374512,0.0622558594,0.1745008680,-0.0006510417,0.0014214410
558390.3700236341,9.7891235355,-0.0369262695,0.0633239746,0.1744900174,-0.0006510417,0.0013997396
558390.3800236339,9.7880554202,-0.0363159180,0.0616455078,0.1744466146,-0.0006510417,0.0013671875
558390.3900236340,9.7888183597,-0.0338745117,0.0602722168,0.1745117187,-0.0006510417,0.0013888889
558390.4000236340,9.7886657718,-0.0343322754,0.0613403320,0.1745225694,-0.0006510417,0.0014214410
558390.4100236340,9.7883605960,-0.0364685059,0.0630187988,0.1745225694,-0.0006835937,0.0014214410
558390.4200236340,9.7891235355,-0.0360107422,0.0622558594,0.1745551215,-0.0006510417,0.0013671875
558390.4300236340,9.7888183597,-0.0343322754,0.0611877441,0.1745117187,-0.0006401910,0.0013780382
558390.4400236340,9.7886657718,-0.0346374512,0.0611877441,0.1744791667,-0.0006401910,0.0014214410
558390.4500236340,9.7885131839,-0.0363159180,0.0625610352,0.1744466146,-0.0006618924,0.0013888889
558390.4600236340,9.7888183597,-0.0360107422,0.0625610352,0.1744357639,-0.0006293403,0.0013563368
558390.4700236340,9.7883605960,-0.0347900391,0.0616455078,0.1744791667,-0.0006618924,0.0013997396
558390.4800236340,9.7872924808,-0.0349426270,0.0604248047,0.1745008680,-0.0006618924,0.0014322917
558390.4900236340,9.7883605960,-0.0352478027,0.0624084473,0.1744791667,-0.0006510417,0.0013454861
558390.5000236341,9.7888183597,-0.0354003906,0.0630187988,0.1744032118,-0.0006510417,0.0013888889
558390.5100236339,9.7889709476,-0.0360107422,0.0616455078,0.1744032118,-0.0006510417,0.0014214410
558390.5200236340,9.7880554202,-0.0340270996,0.0601196289,0.1744249132,-0.0006618924,0.0013346354
558390.5300236340,9.7886657718,-0.0357055664,0.0611877441,0.1744140625,-0.0006401910,0.0013997396
558390.5400236340,9.7885131839,-0.0344848633,0.0628662109,0.1744791667,-0.0006618924,0.0014214410
558390.5500236340,9.7885131839,-0.0352478027,0.0617980957,0.1745117187,-0.0006618924,0.0013671875
558390.5600236340,9.7886657718,-0.0363159180,0.0611877441,0.1745225694,-0.0006401910,0.0013780382
558390.5700236340,9.7885131839,-0.0335693359,0.0611877441,0.1744900174,-0.0006835937,0.0013888889
558390.5800236340,9.7880554202,-0.0354003906,0.0621032715,0.1744683160,-0.0006510417,0.0013671875
558390.5900236340,9.7888183597,-0.0361633301,0.0622558594,0.1744140625,-0.0006618924,0.0014214410
558390.6000236340,9.7883605960,-0.0354003906,0.0610351563,0.1744140625,-0.0006618924,0.0013997396
558390.6100236340,9.7871398929,-0.0366210938,0.0599670410,0.1744900174,-0.0006401910,0.0013780382
558390.6200236341,9.7889709476,-0.0352478027,0.0621032715,0.1744357639,-0.0006618924,0.0013671875
558390.6300236339,9.7882080081,-0.0344848633,0.0628662109,0.1744683160,-0.0006618924,0.0013888889
558390.6400236340,9.7886657718,-0.0357055664,0.0616455078,0.1745008680,-0.0006835937,0.0013888889
558390.6500236340,9.7889709476,-0.0358581543,0.0601196289,0.1744357639,-0.0006510417,0.0013780382
558390.6600236340,9.7885131839,-0.0355529785,0.0614929199,0.1745117187,-0.0006510417,0.0013671875
558390.6700236340,9.7882080081,-0.0343322754,0.0631713867,0.1744791667,-0.0006835937,0.0013997396
558390.6800236340,9.7886657718,-0.0357055664,0.0613403320,0.1745334201,-0.0006618924,0.0013888889
558390.6900236340,9.7888183597,-0.0363159180,0.0596618652,0.1745008680,-0.0006835937,0.0013780382
558390.7000236340,9.7888183597,-0.0347900391,0.0611877441,0.1744791667,-0.0006184896,0.0013563368
558390.7100236340,9.7889709476,-0.0329589844,0.0637817383,0.1744357639,-0.0006510417,0.0013780382
558390.7200236340,9.7883605960,-0.0354003906,0.0628662109,0.1744249132,-0.0006944444,0.0013997396
558390.7300236340,9.7891235355,-0.0370788574,0.0601196289,0.1744032118,-0.0006401910,0.0013997396
558390.7400236340,9.7885131839,-0.0354003906,0.0599670410,0.1744140625,-0.0006835937,0.0013563368
558390.7500236341,9.7883605960,-0.0346374512,0.0622558594,0.1744466146,-0.0006293403,0.0013888889
558390.7600236339,9.7882080081,-0.0352478027,0.0634765625,0.1744466146,-0.0006835937,0.0014214410
558390.7700236340,9.7882080081,-0.0361633301,0.0608825684,0.1744683160,-0.0006835937,0.0013563368
558390.7800236340,9.7891235355,-0.0352478027,0.0587463379,0.1744791667,-0.0006293403,0.0013671875
558390.7900236340,9.7885131839,-0.0341796875,0.0616455078,0.1745117187,-0.0006293403,0.0014214410
558390.8000236340,9.7879028324,-0.0352478027,0.0637817383,0.1745225694,-0.0006618924,0.0013997396
558390.8100236340,9.7886657718,-0.0366210938,0.0624084473,0.1745551215,-0.0006618924,0.0013888889
558390.8200236340,9.7885131839,-0.0349426270,0.0592041016,0.1745008680,-0.0006401910,0.0013888889
558390.8300236340,9.7894287113,-0.0338745117,0.0601196289,0.1745334201,-0.0006510417,0.0013888889
558390.8400236340,9.7880554202,-0.0350952148,0.0631713867,0.1745225694,-0.0006293403,0.0013888889
558390.8500236340,9.7885131839,-0.0364685059,0.0636291504,0.1744791667,-0.0006618924,0.0013888889
558390.8600236340,9.7886657718,-0.0358581543,0.0598144531,0.1744683160,-0.0006835937,0.0013780382
558390.8700236341,9.7886657718,-0.0338745117,0.0596618652,0.1744791667,-0.0006184896,0.0013780382
558390.8800236339,9.7883605960,-0.0347900391,0.0622558594,0.1744791667,-0.0006618924,0.0014214410
558390.8900236340,9.7889709476,-0.0366210938,0.0636291504,0.1744249132,-0.0006510417,0.0013780382
558390.9000236340,9.7885131839,-0.0361633301,0.0616455078,0.1744900174,-0.0006835937,0.0013454861
558390.9100236340,9.7880554202,-0.0338745117,0.0592041016,0.1744683160,-0.0006401910,0.0013780382
558390.9200236340,9.7886657718,-0.0344848633,0.0610351563,0.1745117187,-0.0006401910,0.0014322917
558390.9300236340,9.7882080081,-0.0364685059,0.0631713867,0.1744900174,-0.0006618924,0.0013671875
558390.9400236340,9.7883605960,-0.0364685059,0.0622558594,0.1744683160,-0.0006835937,0.0013671875
558390.9500236340,9.7888183597,-0.0334167480,0.0598144531,0.1745117187,-0.0006618924,0.0013997396
558390.9600236340,9.7883605960,-0.0347900391,0.0604248047,0.1744357639,-0.0006293403,0.0013780382
558390.9700236340,9.7891235355,-0.0363159180,0.0630187988,0.1744791667,-0.0006510417,0.0013780382
558390.9800236340,9.7886657718,-0.0357055664,0.0633239746,0.1744249132,-0.0006618924,0.0013780382
558390.9900236340,9.7886657718,-0.0344848633,0.0607299805,0.1744140625,-0.0006510417,0.0013780382
558391.0000236341,9.7885131839,-0.0352478027,0.0598144531,0.1744357639,-0.0006401910,0.0013997396
558391.0100236339,9.7892761234,-0.0354003906,0.0619506836,0.1747829861,-0.0006401910,0.0014105903
558391.0200236340,9.7882080081,-0.0354003906,0.0633239746,0.1744900174,-0.0006835937,0.0013563368
558391.0300236340,9.7883605960,-0.0363159180,0.0608825684,0.1745008680,-0.0006835937,0.0013888889
558391.0400236340,9.7889709476,-0.0350952148,0.0590515137,0.1744900174,-0.0006401910,0.0013780382
558391.0500236340,9.7885131839,-0.0350952148,0.0616455078,0.1744249132,-0.0006510417,0.0013454861
558391.0600236340,9.7880554202,-0.0363159180,0.0630187988,0.1744791667,-0.0006510417,0.0014214410
558391.0700236340,9.7879028324,-0.0352478027,0.0619506836,0.1745008680,-0.0006835937,0.0013780382
558391.0800236340,9.7889709476,-0.0340270996,0.0599670410,0.1744791667,-0.0006510417,0.0013454861
558391.0900236340,9.7885131839,-0.0364685059,0.0601196289,0.1745334201,-0.0006510417,0.0014322917
558391.1000236340,9.7895812991,-0.0361633301,0.0624084473,0.1745551215,-0.0006184896,0.0013671875
558391.1100236340,9.7883605960,-0.0350952148,0.0627136230,0.1745768229,-0.0007052951,0.0013129340
558391.1200236341,9.7885131839,-0.0352478027,0.0610351563,0.1744791667,-0.0006510417,0.0014322917
558391.1300236339,9.7894287113,-0.0350952148,0.0596618652,0.1744900174,-0.0006510417,0.0014214410
558391.1400236340,9.7888183597,-0.0367736816,0.0614929199,0.1744683160,-0.0006184896,0.0013346354
558391.1500236340,9.7892761234,-0.0354003906,0.0628662109,0.1744791667,-0.0006618924,0.0013780382
558391.1600236340,9.7885131839,-0.0335693359,0.0608825684,0.1744683160,-0.0007052951,0.0013888889
558391.1700236340,9.7882080081,-0.0363159180,0.0598144531,0.1744249132,-0.0006401910,0.0013671875
558391.1800236340,9.7885131839,-0.0369262695,0.0616455078,0.1744140625,-0.0006401910,0.0013563368
558391.1900236340,9.7892761234,-0.0346374512,0.0625610352,0.1743815104,-0.0006401910,0.0013997396
558391.2000236340,9.7885131839,-0.0338745117,0.0611877441,0.1744357639,-0.0006510417,0.0013888889
558391.2100236340,9.7886657718,-0.0355529785,0.0599670410,0.1744466146,-0.0006510417,0.0013780382
558391.2200236340,9.7888183597,-0.0366210938,0.0610351563,0.1744791667,-0.0006293403,0.0013780382
558391.2300236340,9.7886657718,-0.0346374512,0.0630187988,0.1745117187,-0.0006618924,0.0013780382
558391.2400236340,9.7883605960,-0.0357055664,0.0611877441,0.1744900174,-0.0006293403,0.0013780382
558391.2500236341,9.7875976566,-0.0354003906,0.0604248047,0.1744791667,-0.0006944444,0.0013780382
558391.2600236339,9.7883605960,-0.0355529785,0.0608825684,0.1744032118,-0.0006293403,0.0013780382
558391.2700236340,9.7889709476,-0.0352478027,0.0625610352,0.1744466146,-0.0006835937,0.0013780382
558391.2800236340,9.7888183597,-0.0352478027,0.0611877441,0.1744683160,-0.0006401910,0.0013888889
558391.2900236340,9.7888183597,-0.0349426270,0.0613403320,0.1744466146,-0.0006401910,0.0013780382
558391.3000236340,9.7885131839,-0.0347900391,0.0610351563,0.1744357639,-0.0006618924,0.0013671875
558391.3100236340,9.7883605960,-0.0369262695,0.0616455078,0.1744249132,-0.0006293403,0.0013997396
558391.3200236340,9.7886657718,-0.0347900391,0.0619506836,0.1744357639,-0.0006510417,0.0013671875
558391.3300236340,9.7886657718,-0.0347900391,0.0607299805,0.1743272569,-0.0006510417,0.0013888889
558391.3400236340,9.7888183597,-0.0354003906,0.0604248047,0.1743815104,-0.0006835937,0.0013888889
558391.3500236340,9.7885131839,-0.0358581543,0.0616455078,0.1744032118,-0.0006401910,0.0013780382
558391.3600236350,9.7891235355,-0.0364685059,0.0616455078,0.1745659722,-0.0006618924,0.0013454861
558391.3700236350,9.7883605960,-0.0352478027,0.0611877441,0.1746527778,-0.0006510417,0.0014105903
558391.3800236350,9.7892761234,-0.0344848633,0.0598144531,0.1746093750,-0.0006401910,0.0013671875
558391.3900236350,9.7877502445,-0.0360107422,0.0604248047,0.1745117187,-0.0006618924,0.0013888889
558391.4000236350,9.7888183597,-0.0361633301,0.0621032715,0.1744249132,-0.0006184896,0.0013997396
558391.4100236350,9.7891235355,-0.0350952148,0.0624084473,0.1744032118,-0.0006618924,0.0013563368
558391.4200236350,9.7883605960,-0.0349426270,0.0599670410,0.1744357639,-0.0006510417,0.0013888889
558391.4300236350,9.7885131839,-0.0352478027,0.0605773926,0.1744466146,-0.0006510417,0.0013997396
558391.4400236350,9.7883605960,-0.0367736816,0.0611877441,0.1744683160,-0.0006401910,0.0013671875
558391.4500236351,9.7891235355,-0.0352478027,0.0627136230,0.1743923611,-0.0006401910,0.0013780382
558391.4600236350,9.7883605960,-0.0343322754,0.0617980957,0.1743815104,-0.0006618924,0.0013997396
558391.4700236350,9.7891235355,-0.0357055664,0.0602722168,0.1743815104,-0.0006510417,0.0013997396
558391.4800236350,9.7885131839,-0.0361633301,0.0611877441,0.1744140625,-0.0006401910,0.0013671875
558391.4900236350,9.7888183597,-0.0350952148,0.0621032715,0.1744683160,-0.0006510417,0.0013563368
558391.5000236350,9.7883605960,-0.0354003906,0.0617980957,0.1745117187,-0.0006510417,0.0013888889
558391.5100236350,9.7886657718,-0.0352478027,0.0604248047,0.1744900174,-0.0006510417,0.0013888889
558391.5200236350,9.7891235355,-0.0361633301,0.0604248047,0.1744900174,-0.0006401910,0.0013671875
558391.5300236350,9.7886657718,-0.0361633301,0.0613403320,0.1745008680,-0.0006510417,0.0013997396
558391.5400236350,9.7889709476,-0.0352478027,0.0619506836,0.1744683160,-0.0006293403,0.0013997396
558391.5500236350,9.7882080081,-0.0349426270,0.0617980957,0.1744791667,-0.0006618924,0.0013780382
558391.5600236350,9.7888183597,-0.0363159180,0.0599670410,0.1744466146,-0.0006510417,0.0013671875
558391.5700236351,9.7888183597,-0.0360107422,0.0605773926,0.1743923611,-0.0006293403,0.0013671875
558391.5800236349,9.7882080081,-0.0354003906,0.0617980957,0.1743815104,-0.0006510417,0.0013671875
558391.5900236350,9.7888183597,-0.0357055664,0.0619506836,0.1744032118,-0.0006293403,0.0013888889
558391.6000236350,9.7888183597,-0.0346374512,0.0614929199,0.1744249132,-0.0006510417,0.0013888889
558391.6100236350,9.7885131839,-0.0347900391,0.0604248047,0.1744683160,-0.0006510417,0.0013780382
558391.6200236350,9.7883605960,-0.0363159180,0.0607299805,0.1744683160,-0.0006510417,0.0013671875
558391.6300236350,9.7883605960,-0.0354003906,0.0619506836,0.1745117187,-0.0006510417,0.0013780382
558391.6400236350,9.7888183597,-0.0354003906,0.0621032715,0.1744791667,-0.0006510417,0.0013671875
558391.6500236350,9.7894287113,-0.0354003906,0.0608825684,0.1744791667,-0.0006835937,0.0013997396
558391.6600236350,9.7882080081,-0.0361633301,0.0601196289,0.1744900174,-0.0006293403,0.0013888889
558391.6700236350,9.7892761234,-0.0352478027,0.0608825684,0.1745225694,-0.0006510417,0.0013671875
558391.6800236350,9.7888183597,-0.0344848633,0.0622558594,0.1745008680,-0.0006510417,0.0013671875
558391.6900236350,9.7889709476,-0.0357055664,0.0614929199,0.1744683160,-0.0006835937,0.0013997396
558391.7000236351,9.7885131839,-0.0360107422,0.0601196289,0.1745225694,-0.0006293403,0.0013454861
558391.7100236350,9.7889709476,-0.0352478027,0.0607299805,0.1744791667,-0.0006618924,0.0013346354
558391.7200236350,9.7889709476,-0.0352478027,0.0621032715,0.1744466146,-0.0006293403,0.0014214410
558391.7300236350,9.7883605960,-0.0357055664,0.0619506836,0.1744900174,-0.0006618924,0.0014214410
558391.7400236350,9.7889709476,-0.0361633301,0.0602722168,0.1744900174,-0.0006401910,0.0013454861
558391.7500236350,9.7883605960,-0.0355529785,0.0602722168,0.1745117187,-0.0006510417,0.0013671875
558391.7600236350,9.7885131839,-0.0347900391,0.0614929199,0.1744900174,-0.0006401910,0.0014214410
558391.7700236350,9.7885131839,-0.0350952148,0.0622558594,0.1744900174,-0.0006401910,0.0013346354
558391.7800236350,9.7882080081,-0.0364685059,0.0604248047,0.1744791667,-0.0006618924,0.0013780382
558391.7900236350,9.7882080081,-0.0344848633,0.0601196289,0.1745334201,-0.0006510417,0.0013780382
558391.8000236350,9.7885131839,-0.0346374512,0.0613403320,0.1745117187,-0.0006510417,0.0013671875
558391.8100236350,9.7889709476,-0.0363159180,0.0614929199,0.1744791667,-0.0006401910,0.0013888889
558391.8200236351,9.7886657718,-0.0354003906,0.0614929199,0.1744900174,-0.0006944444,0.0013780382
558391.8300236349,9.7888183597,-0.0350952148,0.0604248047,0.1744466146,-0.0006618924,0.0013563368
558391.8400236350,9.7883605960,-0.0358581543,0.0608825684,0.1743598090,-0.0006510417,0.0013888889
558391.8500236350,9.7888183597,-0.0358581543,0.0616455078,0.1743815104,-0.0006510417,0.0013997396
558391.8600236350,9.7891235355,-0.0358581543,0.0613403320,0.1743923611,-0.0006510417,0.0013563368
558391.8700236350,9.7883605960,-0.0352478027,0.0604248047,0.1743923611,-0.0006401910,0.0013888889
558391.8800236350,9.7879028324,-0.0349426270,0.0607299805,0.1744357639,-0.0006510417,0.0013997396
558391.8900236350,9.7889709476,-0.0346374512,0.0611877441,0.1744683160,-0.0006510417,0.0013454861
558391.9000236350,9.7885131839,-0.0360107422,0.0605773926,0.1745008680,-0.0006293403,0.0013888889
558391.9100236350,9.7888183597,-0.0354003906,0.0614929199,0.1744791667,-0.0006510417,0.0013888889
558391.9200236350,9.7882080081,-0.0341796875,0.0607299805,0.1744900174,-0.0006401910,0.0013780382
558391.9300236350,9.7879028324,-0.0366210938,0.0605773926,0.1745117187,-0.0006401910,0.0013997396
558391.9400236350,9.7886657718,-0.0363159180,0.0602722168,0.1744900174,-0.0006293403,0.0013780382
558391.9500236351,9.7888183597,-0.0347900391,0.0613403320,0.1745334201,-0.0006401910,0.0013346354
558391.9600236350,9.7886657718,-0.0347900391,0.0613403320,0.1745225694,-0.0006510417,0.0013997396
558391.9700236350,9.7883605960,-0.0357055664,0.0604248047,0.1744683160,-0.0006618924,0.0013780382
558391.9800236350,9.7889709476,-0.0360107422,0.0602722168,0.1743923611,-0.0006401910,0.0013671875
558391.9900236350,9.7880554202,-0.0355529785,0.0610351563,0.1744032118,-0.0006293403,0.0013780382
558392.0000236350,9.7892761234,-0.0349426270,0.0616455078,0.1744140625,-0.0006510417,0.0013997396
558392.0100236350,9.7882080081,-0.0354003906,0.0614929199,0.1747395833,-0.0006510417,0.0013454861
558392.0200236350,9.7885131839,-0.0360107422,0.0602722168,0.1744900174,-0.0006618924,0.0013671875
558392.0300236350,9.7886657718,-0.0354003906,0.0608825684,0.1745334201,-0.0006293403,0.0013888889
558392.0400236350,9.7891235355,-0.0358581543,0.0613403320,0.1745225694,-0.0006401910,0.0013563368
558392.0500236350,9.7880554202,-0.0350952148,0.0611877441,0.1745117187,-0.0006618924,0.0013671875
558392.0600236350,9.7882080081,-0.0363159180,0.0605773926,0.1744357639,-0.0006510417,0.0013888889
558392.0700236351,9.7885131839,-0.0358581543,0.0604248047,0.1744791667,-0.0006510417,0.0013563368
558392.0800236349,9.7883605960,-0.0350952148,0.0613403320,0.1745117187,-0.0006184896,0.0013671875
558392.0900236350,9.7894287113,-0.0358581543,0.0610351563,0.1744900174,-0.0006510417,0.0013888889
558392.1000236350,9.7877502445,-0.0352478027,0.0608825684,0.1744791667,-0.0006618924,0.0013671875
558392.1100236350,9.7888183597,-0.0361633301,0.0598144531,0.1744683160,-0.0006293403,0.0013671875
558392.1200236350,9.7882080081,-0.0360107422,0.0605773926,0.1744249132,-0.0006510417,0.0013997396
558392.1300236350,9.7885131839,-0.0352478027,0.0616455078,0.1744357639,-0.0006184896,0.0013780382
558392.1400236350,9.7886657718,-0.0357055664,0.0613403320,0.1743923611,-0.0006835937,0.0013671875
558392.1500236350,9.7872924808,-0.0367736816,0.0607299805,0.1744683160,-0.0006618924,0.0013780382
558392.1600236350,9.7889709476,-0.0347900391,0.0604248047,0.1744466146,-0.0006510417,0.0013346354
558392.1700236350,9.7875976566,-0.0352478027,0.0607299805,0.1744466146,-0.0006293403,0.0013780382
558392.1800236350,9.7883605960,-0.0364685059,0.0614929199,0.1744466146,-0.0006401910,0.0014322917
558392.1900236350,9.7883605960,-0.0358581543,0.0604248047,0.1744900174,-0.0006618924,0.0013454861
558392.2000236351,9.7879028324,-0.0358581543,0.0607299805,0.1745008680,-0.0006401910,0.0013671875
558392.2100236350,9.7888183597,-0.0352478027,0.0602722168,0.1744791667,-0.0006401910,0.0013888889
558392.2200236350,9.7883605960,-0.0361633301,0.0614929199,0.1745551215,-0.0006618924,0.0013671875
558392.2300236350,9.7886657718,-0.0352478027,0.0602722168,0.1745117187,-0.0006401910,0.0013563368
558392.2400236350,9.7883605960,-0.0354003906,0.0610351563,0.1744900174,-0.0006618924,0.0013780382
558392.2500236350,9.7882080081,-0.0364685059,0.0605773926,0.1744140625,-0.0006510417,0.0013671875
558392.2600236350,9.7888183597,-0.0354003906,0.0605773926,0.1744683160,-0.0006401910,0.0013671875
558392.2700236350,9.7879028324,-0.0349426270,0.0613403320,0.1744683160,-0.0006510417,0.0013888889
558392.2800236350,9.7889709476,-0.0358581543,0.0601196289,0.1744466146,-0.0006401910,0.0013671875
558392.2900236350,9.7879028324,-0.0360107422,0.0604248047,0.1744140625,-0.0006401910,0.0013563368
558392.3000236350,9.7885131839,-0.0361633301,0.0613403320,0.1744249132,-0.0006401910,0.0013780382
558392.3100236350,9.7889709476,-0.0338745117,0.0614929199,0.1744032118,-0.0006510417,0.0013780382
558392.3200236351,9.7885131839,-0.0360107422,0.0604248047,0.1744140625,-0.0006510417,0.0013671875
558392.3300236349,9.7883605960,-0.0360107422,0.0605773926,0.1744140625,-0.0006510417,0.0013997396
558392.3400236350,9.7883605960,-0.0357055664,0.0611877441,0.1745008680,-0.0006401910,0.0013563368
558392.3500236350,9.7892761234,-0.0355529785,0.0608825684,0.1745225694,-0.0006293403,0.0013780382
558392.3600236350,9.7891235355,-0.0354003906,0.0598144531,0.1745117187,-0.0006510417,0.0013780382
558392.3700236350,9.7877502445,-0.0355529785,0.0607299805,0.1745225694,-0.0006401910,0.0013563368
558392.3800236350,9.7880554202,-0.0352478027,0.0619506836,0.1745117187,-0.0006510417,0.0013671875
558392.3900236350,9.7882080081,-0.0354003906,0.0613403320,0.1745008680,-0.0006510417,0.0013888889
558392.4000236350,9.7886657718,-0.0349426270,0.0595092773,0.1745117187,-0.0006293403,0.0013454861
558392.4100236350,9.7883605960,-0.0361633301,0.0605773926,0.1744791667,-0.0006510417,0.0013780382
558392.4200236350,9.7883605960,-0.0355529785,0.0617980957,0.1744466146,-0.0006510417,0.0013671875
558392.4300236360,9.7882080081,-0.0354003906,0.0608825684,0.1744357639,-0.0006510417,0.0013454861
558392.4400236360,9.7889709476,-0.0358581543,0.0599670410,0.1744249132,-0.0006401910,0.0013671875
558392.4500236360,9.7886657718,-0.0347900391,0.0602722168,0.1744140625,-0.0006510417,0.0013888889
558392.4600236360,9.7879028324,-0.0360107422,0.0613403320,0.1743815104,-0.0006510417,0.0013454861
558392.4700236360,9.7883605960,-0.0357055664,0.0616455078,0.1744032118,-0.0006618924,0.0013671875
558392.4800236360,9.7885131839,-0.0350952148,0.0607299805,0.1744683160,-0.0006510417,0.0013671875
558392.4900236360,9.7886657718,-0.0354003906,0.0598144531,0.1744900174,-0.0006293403,0.0013454861
558392.5000236360,9.7883605960,-0.0363159180,0.0608825684,0.1744791667,-0.0006618924,0.0013780382
558392.5100236360,9.7883605960,-0.0349426270,0.0614929199,0.1744900174,-0.0006401910,0.0013671875
558392.5200236361,9.7886657718,-0.0347900391,0.0608825684,0.1745008680,-0.0006618924,0.0013671875
558392.5300236359,9.7885131839,-0.0364685059,0.0604248047,0.1745008680,-0.0006510417,0.0013997396
558392.5400236360,9.7888183597,-0.0361633301,0.0604248047,0.1744900174,-0.0006184896,0.0013671875
558392.5500236360,9.7885131839,-0.0340270996,0.0614929199,0.1744357639,-0.0006618924,0.0013346354
558392.5600236360,9.7882080081,-0.0358581543,0.0608825684,0.1744683160,-0.0006510417,0.0013888889
558392.5700236360,9.7889709476,-0.0352478027,0.0601196289,0.1744249132,-0.0006510417,0.0013997396
558392.5800236360,9.7885131839,-0.0364685059,0.0599670410,0.1744032118,-0.0006401910,0.0013346354
558392.5900236360,9.7883605960,-0.0357055664,0.0605773926,0.1744357639,-0.0006293403,0.0013997396
558392.6000236360,9.7885131839,-0.0346374512,0.0621032715,0.1744683160,-0.0006835937,0.0013780382
558392.6100236360,9.7886657718,-0.0358581543,0.0604248047,0.1744683160,-0.0006401910,0.0013346354
558392.6200236360,9.7888183597,-0.0360107422,0.0596618652,0.1745008680,-0.0006401910,0.0013888889
558392.6300236360,9.7889709476,-0.0357055664,0.0610351563,0.1745117187,-0.0006401910,0.0013671875
558392.6400236360,9.7883605960,-0.0350952148,0.0611877441,0.1744683160,-0.0006510417,0.0013454861
558392.6500236359,9.7883605960,-0.0357055664,0.0611877441,0.1744791667,-0.0006510417,0.0013780382
558392.6600236360,9.7883605960,-0.0360107422,0.0604248047,0.1744466146,-0.0006510417,0.0013888889
558392.6700236360,9.7886657718,-0.0358581543,0.0604248047,0.1744249132,-0.0006510417,0.0013563368
558392.6800236360,9.7889709476,-0.0358581543,0.0608825684,0.1744249132,-0.0006401910,0.0013671875
558392.6900236360,9.7886657718,-0.0350952148,0.0607299805,0.1743815104,-0.0006835937,0.0013671875
558392.7000236360,9.7883605960,-0.0367736816,0.0605773926,0.1744032118,-0.0006401910,0.0013780382
558392.7100236360,9.7892761234,-0.0366210938,0.0605773926,0.1744032118,-0.0006401910,0.0013671875
558392.7200236360,9.7889709476,-0.0347900391,0.0604248047,0.1744683160,-0.0006293403,0.0013780382
558392.7300236360,9.7892761234,-0.0347900391,0.0601196289,0.1744683160,-0.0006510417,0.0013671875
558392.7400236360,9.7883605960,-0.0360107422,0.0607299805,0.1745008680,-0.0006835937,0.0013454861
558392.7500236360,9.7888183597,-0.0361633301,0.0611877441,0.1745225694,-0.0006293403,0.0013671875
558392.7600236360,9.7883605960,-0.0349426270,0.0607299805,0.1745551215,-0.0006510417,0.0013563368
558392.7700236361,9.7880554202,-0.0357055664,0.0602722168,0.1745659722,-0.0006510417,0.0013780382
558392.7800236359,9.7888183597,-0.0358581543,0.0598144531,0.1744900174,-0.0006510417,0.0013780382
558392.7900236360,9.7883605960,-0.0358581543,0.0610351563,0.1744900174,-0.0006401910,0.0013671875
558392.8000236360,9.7894287113,-0.0361633301,0.0611877441,0.1744683160,-0.0006510417,0.0013671875
558392.8100236360,9.7888183597,-0.0357055664,0.0602722168,0.1744466146,-0.0006510417,0.0013780382
558392.8200236360,9.7888183597,-0.0349426270,0.0592041016,0.1744900174,-0.0006401910,0.0013454861
558392.8300236360,9.7879028324,-0.0357055664,0.0613403320,0.1744249132,-0.0006510417,0.0013671875
558392.8400236360,9.7882080081,-0.0366210938,0.0613403320,0.1744032118,-0.0006510417,0.0013888889
558392.8500236360,9.7888183597,-0.0361633301,0.0607299805,0.1744683160,-0.0006510417,0.0013563368
558392.8600236360,9.7879028324,-0.0355529785,0.0598144531,0.1744140625,-0.0006510417,0.0013671875
558392.8700236360,9.7889709476,-0.0352478027,0.0602722168,0.1745008680,-0.0006510417,0.0013780382
558392.8800236360,9.7882080081,-0.0361633301,0.0605773926,0.1745334201,-0.0006510417,0.0013563368
558392.8900236360,9.7888183597,-0.0367736816,0.0599670410,0.1745225694,-0.0006293403,0.0013563368
558392.9000236359,9.7886657718,-0.0361633301,0.0601196289,0.1745225694,-0.0006401910,0.0013671875
558392.9100236360,9.7889709476,-0.0346374512,0.0604248047,0.1745225694,-0.0006510417,0.0013454861
558392.9200236360,9.7882080081,-0.0350952148,0.0605773926,0.1744791667,-0.0006618924,0.0013780382
558392.9300236360,9.7885131839,-0.0370788574,0.0616455078,0.1744140625,-0.0006293403,0.0013888889
558392.9400236360,9.7891235355,-0.0363159180,0.0604248047,0.1744249132,-0.0006510417,0.0013454861
558392.9500236360,9.7883605960,-0.0349426270,0.0588989258,0.1744249132,-0.0006510417,0.0013563368
558392.9600236360,9.7883605960,-0.0352478027,0.0598144531,0.1744466146,-0.0006401910,0.0013888889
558392.9700236360,9.7889709476,-0.0360107422,0.0617980957,0.1744357639,-0.0006510417,0.0013671875
558392.9800236360,9.7889709476,-0.0372314453,0.0610351563,0.1744249132,-0.0006401910,0.0013563368
558392.9900236360,9.7883605960,-0.0357055664,0.0592041016,0.1744900174,-0.0006510417,0.0013671875
558393.0000236360,9.7880554202,-0.0346374512,0.0595092773,0.1744466146,-0.0006510417,0.0013563368
558393.0100236360,9.7886657718,-0.0357055664,0.0608825684,0.1747721354,-0.0006293403,0.0013780382
558393.0200236361,9.7888183597,-0.0361633301,0.0617980957,0.1744683160,-0.0006835937,0.0013671875
558393.0300236359,9.7891235355,-0.0360107422,0.0602722168,0.1744900174,-0.0006510417,0.0013563368
558393.0400236360,9.7885131839,-0.0357055664,0.0593566895,0.1745225694,-0.0006401910,0.0013780382
558393.0500236360,9.7883605960,-0.0360107422,0.0604248047,0.1745008680,-0.0006401910,0.0013671875
558393.0600236360,9.7886657718,-0.0372314453,0.0613403320,0.1744900174,-0.0006510417,0.0013780382
558393.0700236360,9.7882080081,-0.0357055664,0.0607299805,0.1745117187,-0.0006401910,0.0013780382
558393.0800236360,9.7885131839,-0.0361633301,0.0602722168,0.1744466146,-0.0006401910,0.0013563368
558393.0900236360,9.7889709476,-0.0363159180,0.0601196289,0.1745225694,-0.0006510417,0.0013563368
558393.1000236360,9.7882080081,-0.0355529785,0.0598144531,0.1744683160,-0.0006401910,0.0013563368
558393.1100236360,9.7883605960,-0.0358581543,0.0608825684,0.1744791667,-0.0006401910,0.0013780382
558393.1200236360,9.7894287113,-0.0357055664,0.0607299805,0.1744791667,-0.0006401910,0.0013780382
558393.1300236360,9.7883605960,-0.0358581543,0.0602722168,0.1744791667,-0.0006618924,0.0013563368
558393.1400236360,9.7880554202,-0.0361633301,0.0601196289,0.1744357639,-0.0006510417,0.0013671875
558393.1500236359,9.7886657718,-0.0355529785,0.0608825684,0.1744032118,-0.0006401910,0.0013454861
558393.1600236360,9.7889709476,-0.0363159180,0.0607299805,0.1744249132,-0.0006401910,0.0013671875
558393.1700236360,9.7889709476,-0.0352478027,0.0605773926,0.1744357639,-0.0006510417,0.0013888889
558393.1800236360,9.7888183597,-0.0352478027,0.0601196289,0.1744140625,-0.0006510417,0.0013454861
558393.1900236360,9.7877502445,-0.0363159180,0.0602722168,0.1744249132,-0.0006510417,0.0013671875
558393.2000236360,9.7885131839,-0.0357055664,0.0605773926,0.1744900174,-0.0006510417,0.0013671875
558393.2100236360,9.7886657718,-0.0344848633,0.0610351563,0.1745551215,-0.0006618924,0.0013346354
558393.2200236360,9.7885131839,-0.0360107422,0.0605773926,0.1745334201,-0.0006618924,0.0013888889
558393.2300236360,9.7883605960,-0.0358581543,0.0605773926,0.1745117187,-0.0006510417,0.0013671875
558393.2400236360,9.7879028324,-0.0360107422,0.0596618652,0.1745117187,-0.0006510417,0.0013346354
558393.2500236360,9.7889709476,-0.0355529785,0.0607299805,0.1745008680,-0.0006401910,0.0013780382
558393.2600236360,9.7892761234,-0.0349426270,0.0607299805,0.1745008680,-0.0006618924,0.0013888889
558393.2700236361,9.7883605960,-0.0364685059,0.0599670410,0.1744683160,-0.0006618924,0.0013129340
558393.2800236359,9.7872924808,-0.0364685059,0.0595092773,0.1744683160,-0.0006618924,0.0013563368
558393.2900236360,9.7886657718,-0.0350952148,0.0604248047,0.1744466146,-0.0006401910,0.0013780382
558393.3000236360,9.7892761234,-0.0346374512,0.0604248047,0.1744249132,-0.0006293403,0.0013454861
558393.3100236360,9.7885131839,-0.0369262695,0.0610351563,0.1744249132,-0.0006510417,0.0013671875
558393.3200236360,9.7879028324,-0.0360107422,0.0602722168,0.1744357639,-0.0006510417,0.0013563368
558393.3300236360,9.7880554202,-0.0363159180,0.0605773926,0.1744249132,-0.0006510417,0.0013346354
558393.3400236360,9.7885131839,-0.0360107422,0.0601196289,0.1744466146,-0.0006401910,0.0013780382
558393.3500236360,9.7885131839,-0.0357055664,0.0610351563,0.1744249132,-0.0006293403,0.0013454861
558393.3600236360,9.7883605960,-0.0349426270,0.0601196289,0.1744357639,-0.0006835937,0.0013454861
558393.3700236360,9.7880554202,-0.0361633301,0.0601196289,0.1743923611,-0.0006510417,0.0013780382
558393.3800236360,9.7885131839,-0.0364685059,0.0599670410,0.1744357639,-0.0006293403,0.0013780382
558393.3900236360,9.7888183597,-0.0357055664,0.0617980957,0.1744357639,-0.0006510417,0.0013454861
558393.4000236359,9.7891235355,-0.0355529785,0.0607299805,0.1744466146,-0.0006510417,0.0013671875
558393.4100236360,9.7888183597,-0.0354003906,0.0593566895,0.1746853299,-0.0006727431,0.0013671875
558393.4200236360,9.7882080081,-0.0373840332,0.0601196289,0.1746636285,-0.0006293403,0.0013454861
558393.4300236360,9.7886657718,-0.0361633301,0.0610351563,0.1745985243,-0.0006293403,0.0013563368
558393.4400236360,9.7892761234,-0.0338745117,0.0610351563,0.1744140625,-0.0006184896,0.0013563368
558393.4500236360,9.7877502445,-0.0355529785,0.0595092773,0.1744466146,-0.0006510417,0.0013671875
558393.4600236360,9.7882080081,-0.0370788574,0.0598144531,0.1744683160,-0.0006618924,0.0013780382
558393.4700236360,9.7885131839,-0.0367736816,0.0611877441,0.1744900174,-0.0006184896,0.0013346354
558393.4800236360,9.7888183597,-0.0349426270,0.0613403320,0.1745225694,-0.0006401910,0.0013454861
558393.4900236360,9.7886657718,-0.0347900391,0.0596618652,0.1745117187,-0.0006618924,0.0013780382
558393.5000236370,9.7882080081,-0.0370788574,0.0596618652,0.1745117187,-0.0006401910,0.0013671875
558393.5100236370,9.7879028324,-0.0375366211,0.0608825684,0.1744466146,-0.0006401910,0.0013454861
558393.5200236370,9.7885131839,-0.0347900391,0.0604248047,0.1745008680,-0.0006401910,0.0013454861
558393.5300236370,9.7885131839,-0.0338745117,0.0605773926,0.1744249132,-0.0006401910,0.0013780382
558393.5400236370,9.7885131839,-0.0367736816,0.0595092773,0.1744683160,-0.0006401910,0.0013671875
558393.5500236370,9.7877502445,-0.0376892090,0.0602722168,0.1745117187,-0.0006510417,0.0013129340
558393.5600236370,9.7886657718,-0.0354003906,0.0599670410,0.1744791667,-0.0006293403,0.0013454861
558393.5700236370,9.7888183597,-0.0341796875,0.0605773926,0.1745008680,-0.0006510417,0.0013888889
558393.5800236370,9.7885131839,-0.0366210938,0.0605773926,0.1744249132,-0.0006510417,0.0013780382
558393.5900236371,9.7883605960,-0.0381469727,0.0596618652,0.1744249132,-0.0006510417,0.0013454861
558393.6000236369,9.7879028324,-0.0355529785,0.0602722168,0.1744791667,-0.0006293403,0.0013454861
558393.6100236370,9.7888183597,-0.0343322754,0.0604248047,0.1745008680,-0.0006401910,0.0013563368
558393.6200236370,9.7891235355,-0.0358581543,0.0601196289,0.1745225694,-0.0006510417,0.0013671875
558393.6300236370,9.7883605960,-0.0363159180,0.0605773926,0.1745659722,-0.0006401910,0.0013346354
558393.6400236370,9.7872924808,-0.0363159180,0.0601196289,0.1744900174,-0.0006835937,0.0013563368
558393.6500236370,9.7888183597,-0.0357055664,0.0598144531,0.1744791667,-0.0006293403,0.0013671875
558393.6600236370,9.7891235355,-0.0354003906,0.0596618652,0.1744357639,-0.0006510417,0.0013563368
558393.6700236370,9.7883605960,-0.0360107422,0.0611877441,0.1744357639,-0.0006510417,0.0013563368
558393.6800236370,9.7883605960,-0.0355529785,0.0604248047,0.1744249132,-0.0006510417,0.0013563368
558393.6900236370,9.7883605960,-0.0361633301,0.0599670410,0.1744032118,-0.0006510417,0.0013563368
558393.7000236370,9.7889709476,-0.0369262695,0.0596618652,0.1744140625,-0.0006184896,0.0013671875
558393.7100236370,9.7888183597,-0.0364685059,0.0602722168,0.1743923611,-0.0006510417,0.0013671875
558393.7200236371,9.7888183597,-0.0357055664,0.0607299805,0.1744357639,-0.0006618924,0.0013454861
558393.7300236369,9.7882080081,-0.0360107422,0.0604248047,0.1744466146,-0.0006401910,0.0013563368
558393.7400236370,9.7886657718,-0.0366210938,0.0604248047,0.1745659722,-0.0006618924,0.0013563368
558393.7500236370,9.7888183597,-0.0358581543,0.0596618652,0.1746202257,-0.0006076389,0.0013454861
558393.7600236370,9.7889709476,-0.0352478027,0.0601196289,0.1745876736,-0.0006510417,0.0013563368
558393.7700236370,9.7880554202,-0.0357055664,0.0601196289,0.1745008680,-0.0006618924,0.0013671875
558393.7800236370,9.7882080081,-0.0358581543,0.0610351563,0.1744140625,-0.0006510417,0.0013563368
558393.7900236370,9.7888183597,-0.0354003906,0.0595092773,0.1744140625,-0.0006510417,0.0013454861
558393.8000236370,9.7891235355,-0.0354003906,0.0595092773,0.1743815104,-0.0006401910,0.0013780382
558393.8100236370,9.7880554202,-0.0360107422,0.0611877441,0.1744357639,-0.0006618924,0.0013129340
558393.8200236370,9.7883605960,-0.0369262695,0.0607299805,0.1744357639,-0.0006510417,0.0013671875
558393.8300236370,9.7889709476,-0.0354003906,0.0596618652,0.1744791667,-0.0006401910,0.0013671875
558393.8400236371,9.7891235355,-0.0357055664,0.0596618652,0.1744466146,-0.0006401910,0.0013563368
558393.8500236369,9.7888183597,-0.0355529785,0.0598144531,0.1744357639,-0.0006401910,0.0013563368
558393.8600236370,9.7882080081,-0.0361633301,0.0604248047,0.1744357639,-0.0006618924,0.0013563368
558393.8700236370,9.7880554202,-0.0363159180,0.0605773926,0.1744683160,-0.0006510417,0.0013346354
558393.8800236370,9.7889709476,-0.0360107422,0.0602722168,0.1745008680,-0.0006401910,0.0013346354
558393.8900236370,9.7886657718,-0.0357055664,0.0595092773,0.1745225694,-0.0006618924,0.0013671875
558393.9000236370,9.7888183597,-0.0355529785,0.0601196289,0.1745117187,-0.0006510417,0.0013346354
558393.9100236370,9.7880554202,-0.0366210938,0.0604248047,0.1744791667,-0.0006401910,0.0013671875
558393.9200236370,9.7880554202,-0.0375366211,0.0602722168,0.1744249132,-0.0006510417,0.0013780382
558393.9300236370,9.7898864749,-0.0369262695,0.0590515137,0.1744249132,-0.0006401910,0.0013129340
558393.9400236370,9.7883605960,-0.0343322754,0.0593566895,0.1744466146,-0.0006618924,0.0013346354
558393.9500236370,9.7882080081,-0.0360107422,0.0616455078,0.1744140625,-0.0006510417,0.0013997396
558393.9600236370,9.7895812991,-0.0366210938,0.0604248047,0.1744791667,-0.0006618924,0.0013563368
558393.9700236371,9.7874450687,-0.0379943848,0.0588989258,0.1744791667,-0.0006510417,0.0013129340
558393.9800236369,9.7898864749,-0.0369262695,0.0587463379,0.1744357639,-0.0006293403,0.0013780382
558393.9900236370,9.7894287113,-0.0317382813,0.0599670410,0.1744357639,-0.0006401910,0.0013020833
558394.0000236370,9.7880554202,-0.0376892090,0.0614929199,0.1744466146,-0.0006835937,0.0013780382
558394.0100236370,9.7883605960,-0.0384521484,0.0608825684,0.1747829861,-0.0006510417,0.0013780382
558394.0200236370,9.7889709476,-0.0357055664,0.0587463379,0.1744791667,-0.0006618924,0.0012803819
558394.0300236370,9.7894287113,-0.0343322754,0.0578308105,0.1744791667,-0.0006401910,0.0013563368
558394.0400236370,9.7888183597,-0.0355529785,0.0610351563,0.1744140625,-0.0006401910,0.0014322917
558394.0500236370,9.7888183597,-0.0378417969,0.0621032715,0.1743923611,-0.0006618924,0.0012912326
558394.0600236370,9.7889709476,-0.0375366211,0.0598144531,0.1744249132,-0.0006510417,0.0013346354
558394.0700236370,9.7886657718,-0.0340270996,0.0578308105,0.1744466146,-0.0006401910,0.0013888889
558394.0800236370,9.7891235355,-0.0349426270,0.0610351563,0.1744683160,-0.0006510417,0.0013346354
558394.0900236371,9.7883605960,-0.0390625000,0.0627136230,0.1744900174,-0.0006618924,0.0013563368
558394.1000236369,9.7888183597,-0.0367736816,0.0598144531,0.1744357639,-0.0006835937,0.0013454861
558394.1100236370,9.7886657718,-0.0341796875,0.0578308105,0.1744466146,-0.0006293403,0.0013129340
558394.1200236370,9.7888183597,-0.0360107422,0.0599670410,0.1744900174,-0.0006510417,0.0014214410
558394.1300236370,9.7882080081,-0.0375366211,0.0619506836,0.1744791667,-0.0006510417,0.0013671875
558394.1400236370,9.7886657718,-0.0372314453,0.0608825684,0.1745117187,-0.0006618924,0.0013020833
558394.1500236370,9.7880554202,-0.0349426270,0.0590515137,0.1744249132,-0.0006510417,0.0013671875
558394.1600236370,9.7885131839,-0.0350952148,0.0592041016,0.1744466146,-0.0006184896,0.0013997396
558394.1700236370,9.7885131839,-0.0369262695,0.0610351563,0.1744683160,-0.0006835937,0.0013020833
558394.1800236370,9.7886657718,-0.0376892090,0.0605773926,0.1745117187,-0.0006510417,0.0013454861
558394.1900236370,9.7885131839,-0.0344848633,0.0596618652,0.1745117187,-0.0006510417,0.0013780382
558394.2000236370,9.7889709476,-0.0354003906,0.0593566895,0.1745008680,-0.0006401910,0.0013563368
558394.2100236370,9.7888183597,-0.0382995605,0.0601196289,0.1745225694,-0.0006510417,0.0013454861
558394.2200236371,9.7886657718,-0.0369262695,0.0605773926,0.1744900174,-0.0006835937,0.0013346354
558394.2300236369,9.7879028324,-0.0340270996,0.0607299805,0.1745117187,-0.0006510417,0.0013454861
558394.2400236370,9.7883605960,-0.0360107422,0.0585937500,0.1744791667,-0.0006510417,0.0013780382
558394.2500236370,9.7888183597,-0.0376892090,0.0598144531,0.1744140625,-0.0006401910,0.0013888889
558394.2600236370,9.7888183597,-0.0364685059,0.0607299805,0.1744466146,-0.0006401910,0.0012912326
558394.2700236370,9.7879028324,-0.0350952148,0.0602722168,0.1744683160,-0.0006944444,0.0013563368
558394.2800236370,9.7880554202,-0.0354003906,0.0593566895,0.1744791667,-0.0006401910,0.0013780382
558394.2900236370,9.7891235355,-0.0373840332,0.0595092773,0.1745117187,-0.0006510417,0.0013454861
558394.3000236370,9.7886657718,-0.0373840332,0.0607299805,0.1745659722,-0.0006618924,0.0013346354
558394.3100236370,9.7886657718,-0.0354003906,0.0604248047,0.1745117187,-0.0006618924,0.0013563368
558394.3200236370,9.7883605960,-0.0337219238,0.0598144531,0.1744032118,-0.0006618924,0.0013563368
558394.3300236370,9.7888183597,-0.0379943848,0.0598144531,0.1744140625,-0.0006184896,0.0013780382
558394.3400236371,9.7888183597,-0.0361633301,0.0602722168,0.1744249132,-0.0006401910,0.0013346354
558394.3500236369,9.7883605960,-0.0366210938,0.0617980957,0.1744140625,-0.0006835937,0.0013129340
558394.3600236370,9.7880554202,-0.0352478027,0.0587463379,0.1744249132,-0.0006510417,0.0013454861
558394.3700236370,9.7885131839,-0.0358581543,0.0593566895,0.1744466146,-0.0006401910,0.0013780382
558394.3800236370,9.7889709476,-0.0378417969,0.0607299805,0.1744900174,-0.0006293403,0.0013563368
558394.3900236370,9.7895812991,-0.0366210938,0.0602722168,0.1746527778,-0.0006618924,0.0013346354
558394.4000236370,9.7880554202,-0.0354003906,0.0602722168,0.1746093750,-0.0006510417,0.0013129340
558394.4100236370,9.7886657718,-0.0369262695,0.0588989258,0.1745117187,-0.0006618924,0.0013888889
558394.4200236370,9.7880554202,-0.0357055664,0.0585937500,0.1744683160,-0.0006401910,0.0013346354
558394.4300236370,9.7882080081,-0.0373840332,0.0611877441,0.1744249132,-0.0006401910,0.0013563368
558394.4400236370,9.7882080081,-0.0354003906,0.0608825684,0.1744032118,-0.0006944444,0.0013563368
558394.4500236370,9.7891235355,-0.0370788574,0.0590515137,0.1744249132,-0.0006293403,0.0013563368
558394.4600236370,9.7888183597,-0.0367736816,0.0587463379,0.1744032118,-0.0006293403,0.0013346354
558394.4700236371,9.7891235355,-0.0361633301,0.0608825684,0.1745008680,-0.0006510417,0.0013454861
558394.4800236369,9.7891235355,-0.0343322754,0.0611877441,0.1745117187,-0.0006618924,0.0013454861
558394.4900236370,9.7877502445,-0.0363159180,0.0598144531,0.1744791667,-0.0006835937,0.0013563368
558394.5000236370,9.7882080081,-0.0376892090,0.0578308105,0.1744466146,-0.0006184896,0.0013454861
558394.5100236370,9.7889709476,-0.0370788574,0.0614929199,0.1744791667,-0.0006401910,0.0013454861
558394.5200236370,9.7891235355,-0.0346374512,0.0607299805,0.1744357639,-0.0006618924,0.0013563368
558394.5300236370,9.7889709476,-0.0357055664,0.0598144531,0.1744140625,-0.0006618924,0.0013563368
558394.5400236370,9.7880554202,-0.0373840332,0.0590515137,0.1744900174,-0.0006618924,0.0013346354
558394.5500236370,9.7891235355,-0.0370788574,0.0595092773,0.1744900174,-0.0006293403,0.0013346354
558394.5600236370,9.7885131839,-0.0347900391,0.0616455078,0.1744900174,-0.0006293403,0.0013454861
558394.5700236370,9.7886657718,-0.0369262695,0.0607299805,0.1745117187,-0.0006618924,0.0013780382
558394.5800236380,9.7883605960,-0.0367736816,0.0595092773,0.1745008680,-0.0006618924,0.0013346354
558394.5900236380,9.7880554202,-0.0361633301,0.0592041016,0.1744466146,-0.0006293403,0.0012912326
558394.6000236380,9.7888183597,-0.0358581543,0.0610351563,0.1744466146,-0.0006401910,0.0013780382
558394.6100236380,9.7889709476,-0.0352478027,0.0610351563,0.1744249132,-0.0006618924,0.0013671875
558394.6200236380,9.7883605960,-0.0367736816,0.0588989258,0.1744357639,-0.0006401910,0.0013020833
558394.6300236380,9.7874450687,-0.0382995605,0.0584411621,0.1744249132,-0.0006401910,0.0013563368
558394.6400236380,9.7892761234,-0.0357055664,0.0598144531,0.1744140625,-0.0006510417,0.0013454861
558394.6500236380,9.7895812991,-0.0355529785,0.0614929199,0.1744140625,-0.0006401910,0.0013346354
558394.6600236380,9.7888183597,-0.0373840332,0.0595092773,0.1744683160,-0.0006835937,0.0013780382
558394.6700236381,9.7880554202,-0.0363159180,0.0582885742,0.1744466146,-0.0006510417,0.0013020833
558394.6800236379,9.7882080081,-0.0361633301,0.0596618652,0.1744032118,-0.0006618924,0.0013020833
558394.6900236380,9.7894287113,-0.0361633301,0.0610351563,0.1744140625,-0.0006401910,0.0013888889
558394.7000236380,9.7883605960,-0.0355529785,0.0607299805,0.1744791667,-0.0006510417,0.0013454861
558394.7100236380,9.7883605960,-0.0381469727,0.0588989258,0.1744900174,-0.0006835937,0.0013346354
558394.7200236380,9.7875976566,-0.0369262695,0.0581359863,0.1745008680,-0.0006510417,0.0013563368
558394.7300236380,9.7894287113,-0.0346374512,0.0598144531,0.1745225694,-0.0006293403,0.0013129340
558394.7400236380,9.7885131839,-0.0357055664,0.0616455078,0.1745117187,-0.0006293403,0.0013671875
558394.7500236380,9.7882080081,-0.0375366211,0.0604248047,0.1745008680,-0.0006944444,0.0013888889
558394.7600236380,9.7882080081,-0.0373840332,0.0582885742,0.1745225694,-0.0006510417,0.0013020833
558394.7700236380,9.7877502445,-0.0358581543,0.0584411621,0.1744683160,-0.0006510417,0.0013346354
558394.7800236380,9.7886657718,-0.0349426270,0.0610351563,0.1744466146,-0.0006510417,0.0013780382
558394.7900236381,9.7883605960,-0.0355529785,0.0616455078,0.1744357639,-0.0006510417,0.0013780382
558394.8000236379,9.7885131839,-0.0386047363,0.0587463379,0.1744466146,-0.0006944444,0.0013020833
558394.8100236380,9.7877502445,-0.0364685059,0.0585937500,0.1744900174,-0.0006401910,0.0013454861
558394.8200236380,9.7883605960,-0.0357055664,0.0599670410,0.1744466146,-0.0006293403,0.0013563368
558394.8300236380,9.7892761234,-0.0360107422,0.0607299805,0.1744791667,-0.0006401910,0.0013563368
558394.8400236380,9.7888183597,-0.0364685059,0.0595092773,0.1744900174,-0.0006618924,0.0013563368
558394.8500236380,9.7882080081,-0.0367736816,0.0584411621,0.1744900174,-0.0006401910,0.0013454861
558394.8600236380,9.7889709476,-0.0361633301,0.0595092773,0.1745008680,-0.0006510417,0.0013346354
558394.8700236380,9.7891235355,-0.0363159180,0.0610351563,0.1744791667,-0.0006401910,0.0013563368
558394.8800236380,9.7879028324,-0.0357055664,0.0608825684,0.1744357639,-0.0006618924,0.0013454861
558394.8900236380,9.7883605960,-0.0363159180,0.0588989258,0.1743923611,-0.0006618924,0.0013454861
558394.9000236380,9.7885131839,-0.0382995605,0.0592041016,0.1743598090,-0.0006401910,0.0013563368
558394.9100236380,9.7883605960,-0.0366210938,0.0596618652,0.1743381076,-0.0006401910,0.0013346354
558394.9200236381,9.7892761234,-0.0350952148,0.0604248047,0.1743489583,-0.0006510417,0.0013563368
558394.9300236379,9.7889709476,-0.0363159180,0.0602722168,0.1744140625,-0.0006510417,0.0013563368
558394.9400236380,9.7882080081,-0.0375366211,0.0584411621,0.1744900174,-0.0006835937,0.0013346354
558394.9500236380,9.7875976566,-0.0372314453,0.0592041016,0.1744791667,-0.0006293403,0.0013346354
558394.9600236380,9.7892761234,-0.0352478027,0.0604248047,0.1745008680,-0.0006510417,0.0013563368
558394.9700236380,9.7886657718,-0.0360107422,0.0608825684,0.1744357639,-0.0006618924,0.0013671875
558394.9800236380,9.7885131839,-0.0373840332,0.0588989258,0.1744357639,-0.0006401910,0.0013346354
558394.9900236380,9.7882080081,-0.0367736816,0.0585937500,0.1745008680,-0.0006618924,0.0013346354
558395.0000236380,9.7888183597,-0.0355529785,0.0604248047,0.1745334201,-0.0006510417,0.0013346354
558395.0100236380,9.7889709476,-0.0358581543,0.0604248047,0.1748263889,-0.0006510417,0.0013563368
558395.0200236380,9.7880554202,-0.0372314453,0.0592041016,0.1745334201,-0.0006618924,0.0013563368
558395.0300236380,9.7882080081,-0.0364685059,0.0584411621,0.1745225694,-0.0006510417,0.0013346354
558395.0400236381,9.7880554202,-0.0366210938,0.0598144531,0.1744466146,-0.0006293403,0.0013454861
558395.0500236379,9.7885131839,-0.0366210938,0.0607299805,0.1744032118,-0.0006401910,0.0013563368
558395.0600236380,9.7889709476,-0.0376892090,0.0602722168,0.1745985243,-0.0006401910,0.0013129340
558395.0700236380,9.7883605960,-0.0361633301,0.0585937500,0.1745659722,-0.0006835937,0.0013346354
558395.0800236380,9.7879028324,-0.0360107422,0.0596618652,0.1744683160,-0.0006510417,0.0013671875
558395.0900236380,9.7886657718,-0.0366210938,0.0605773926,0.1744249132,-0.0006401910,0.0013454861
558395.1000236380,9.7883605960,-0.0370788574,0.0605773926,0.1744357639,-0.0006510417,0.0013454861
558395.1100236380,9.7877502445,-0.0364685059,0.0595092773,0.1745008680,-0.0006510417,0.0013454861
558395.1200236380,9.7879028324,-0.0364685059,0.0593566895,0.1744791667,-0.0006401910,0.0013129340
558395.1300236380,9.7889709476,-0.0366210938,0.0593566895,0.1745117187,-0.0006401910,0.0013346354
558395.1400236380,9.7886657718,-0.0366210938,0.0608825684,0.1744900174,-0.0006401910,0.0013563368
558395.1500236380,9.7892761234,-0.0366210938,0.0593566895,0.1744791667,-0.0006401910,0.0013346354
558395.1600236380,9.7885131839,-0.0358581543,0.0595092773,0.1744683160,-0.0006401910,0.0013346354
558395.1700236381,9.7882080081,-0.0363159180,0.0601196289,0.1744900174,-0.0006510417,0.0013671875
558395.1800236379,9.7894287113,-0.0361633301,0.0601196289,0.1744791667,-0.0006293403,0.0013346354
558395.1900236380,9.7886657718,-0.0369262695,0.0601196289,0.1744357639,-0.0006618924,0.0013346354
558395.2000236380,9.7883605960,-0.0366210938,0.0584411621,0.1744466146,-0.0006835937,0.0013563368
558395.2100236380,9.7879028324,-0.0360107422,0.0598144531,0.1744249132,-0.0006401910,0.0013346354
558395.2200236380,9.7880554202,-0.0376892090,0.0604248047,0.1744357639,-0.0006510417,0.0013454861
558395.2300236380,9.7889709476,-0.0364685059,0.0602722168,0.1744357639,-0.0006293403,0.0013780382
